Imagemteste,Imagemoriginal,trials_2.thisRepN,trials_2.thisTrialN,trials_2.thisN,trials_2.thisIndex,trials.thisRepN,trials.thisTrialN,trials.thisN,trials.thisIndex,key_resp_2.keys,key_resp_2.rt,mouse_4.x,mouse_4.y,mouse_4.leftButton,mouse_4.midButton,mouse_4.rightButton,mouse.x,mouse.y,mouse.leftButton,mouse.midButton,mouse.rightButton,rating_2.response,rating_2.rt,key_resp_3.keys,mouse_3.x,mouse_3.y,mouse_3.leftButton,mouse_3.midButton,mouse_3.rightButton,mouse_2.x,mouse_2.y,mouse_2.leftButton,mouse_2.midButton,mouse_2.rightButton,mouse_2.time,date,frameRate,expName,session,participant,
,,,,,,,,,,space,1.31967078149,,,,,,,,,,,,,,,,,,,,,,,,,2017_mar_16_1427,59.9131939127,aqv,001,,
,,,,,,,,,,,,0.176388888889,-0.377777777778,0,0,0,,,,,,,,,,,,,,,,,,,,2017_mar_16_1427,59.9131939127,aqv,001,,
Test_9_70_jpg_soft.png,Orig_9_soft.png,0,0,0,2,,,,,,,,,,,,0.0791666666667,-0.913333333333,1,0,0,Diagnóstico diferente,1.555,,,,,,,,,,,,,2017_mar_16_1427,59.9131939127,aqv,001,,
Test_3_50_jpg_bone.png,Orig_3_bone.png,0,1,1,1,,,,,,,,,,,,0.116666666667,-0.9,1,0,0,Diagnóstico diferente,0.969,,,,,,,,,,,,,2017_mar_16_1427,59.9131939127,aqv,001,,
Test_0_10_jp2_bone.png,Orig_0_bone.png,0,2,2,0,,,,,,,,,,,,0.00694444444444,-0.951111111111,1,0,0,Mesmo diagnóstico,2.837,,,,,,,,,,,,,2017_mar_16_1427,59.9131939127,aqv,001,,
,,,,,,,,,,,,,,,,,,,,,,,,None,,,,,,,,,,,,2017_mar_16_1427,59.9131939127,aqv,001,,
,,,,,,,,,,,,,,,,,,,,,,,,,0.0722222222222,-0.657777777778,1,0,0,,,,,,,2017_mar_16_1427,59.9131939127,aqv,001,,
Test_6_70_jpg_bone.png,Orig_6_bone.png,,,,,0,0,0,55,,,,,,,,,,,,,,,,,,,,,"[0.26111111111111113, 0.26111111111111113, 0.26111111111111113, 0.26111111111111113, 0.26111111111111113, 0.26111111111111113, 0.26111111111111113, 0.10277777777777777, 0.10277777777777777]","[-0.76444444444444448, -0.76444444444444448, -0.76444444444444448, -0.76444444444444448, -0.76444444444444448, -0.76444444444444448, -0.76444444444444448, -0.93333333333333335, -0.93333333333333335]","[1, 1, 1, 1, 1, 1, 1, 1, 1]","[0, 0, 0, 0, 0, 0, 0, 0, 0]","[0, 0, 0, 0, 0, 0, 0, 0, 0]","[0.9313949841016438, 0.9476930547098164, 0.9643519892997574, 0.9810145295050461, 0.9977903467661235, 1.0144588963594288, 1.0312190892000217, 1.3655116215813905, 1.3819049410521984]",2017_mar_16_1427,59.9131939127,aqv,001,,
Orig_8_soft.png,Orig_8_soft.png,,,,,0,1,1,178,,,,,,,,,,,,,,,,,,,,,"[-0.26944444444444443, -0.26944444444444443, -0.26944444444444443, -0.26944444444444443, -0.26944444444444443, -0.26944444444444443, -0.26944444444444443, -0.26944444444444443, -0.26944444444444443, -0.088888888888888892, -0.087499999999999994]","[-0.76666666666666672, -0.76666666666666672, -0.76666666666666672, -0.76666666666666672, -0.76666666666666672, -0.76666666666666672, -0.76666666666666672, -0.76666666666666672, -0.76666666666666672, -0.92222222222222228, -0.9244444444444444]","[1, 1, 1, 1, 1, 1, 1, 1, 1, 1, 1]","[0, 0, 0, 0, 0, 0, 0, 0, 0, 0, 0]","[0, 0, 0, 0, 0, 0, 0, 0, 0, 0, 0]","[0.6336780120036565, 0.6496969463769346, 0.6663862284040079, 0.6830628906900529, 0.6998002478212584, 0.7165123655286152, 0.733156276633963, 0.7498981408134568, 0.7666006434883457, 1.1344808666908648, 1.150803876313148]",2017_mar_16_1427,59.9131939127,aqv,001,,
Test_8_70_jpg_bone.png,Orig_8_bone.png,,,,,0,2,2,71,,,,,,,,,,,,,,,,,,,,,"[0.2361111111111111, 0.2361111111111111, 0.2361111111111111, 0.2361111111111111, 0.2361111111111111, 0.2361111111111111, 0.2361111111111111, 0.070833333333333331, 0.070833333333333331]","[-0.7533333333333333, -0.7533333333333333, -0.7533333333333333, -0.7533333333333333, -0.7533333333333333, -0.7533333333333333, -0.7533333333333333, -0.9244444444444444, -0.9244444444444444]","[1, 1, 1, 1, 1, 1, 1, 1, 1]","[0, 0, 0, 0, 0, 0, 0, 0, 0]","[0, 0, 0, 0, 0, 0, 0, 0, 0]","[0.6168895750306547, 0.6331167348544113, 0.649855594325345, 0.6665830359852407, 0.683228148962371, 0.6999048112484161, 0.716601605003234, 1.1176608804380521, 1.1341097867989447]",2017_mar_16_1427,59.9131939127,aqv,001,,
Orig_3_bone.png,Orig_3_bone.png,,,,,0,3,3,163,,,,,,,,,,,,,,,,,,,,,"[0.23749999999999999, 0.23749999999999999, 0.23749999999999999, 0.23749999999999999, 0.23749999999999999, 0.23749999999999999, 0.23749999999999999, 0.2388888888888889, 0.28472222222222221, 0.28472222222222221, 0.28472222222222221, 0.28472222222222221, 0.28472222222222221, 0.28472222222222221, 0.28472222222222221, 0.28472222222222221, 0.11944444444444445, 0.11944444444444445]","[-0.78666666666666663, -0.78666666666666663, -0.78666666666666663, -0.78666666666666663, -0.78666666666666663, -0.78666666666666663, -0.78666666666666663, -0.78666666666666663, -0.73777777777777775, -0.73777777777777775, -0.73777777777777775, -0.73777777777777775, -0.73777777777777775, -0.73777777777777775, -0.73777777777777775, -0.73777777777777775, -0.89777777777777779, -0.89777777777777779]","[1, 1, 1, 1, 1, 1, 1, 1, 1, 1, 1, 1, 1, 1, 1, 1, 1, 1]","[0, 0, 0, 0, 0, 0, 0, 0, 0, 0, 0, 0, 0, 0, 0, 0, 0, 0]","[0, 0, 0, 0, 0, 0, 0, 0, 0, 0, 0, 0, 0, 0, 0, 0, 0, 0]","[0.5504037710197736, 0.566803099878598, 0.5834965884569101, 0.6002057014557067, 0.6169018942746334, 0.6336022936739028, 0.6503258291922975, 0.6670421534799971, 1.3186047154595144, 1.3349232180044055, 1.3516230164386798, 1.3683125989336986, 1.3850337307085283, 1.4017161019146442, 1.4184219097660389, 1.4351613701728638, 1.786080386431422, 1.8024806166940834]",2017_mar_16_1427,59.9131939127,aqv,001,,
Test_7_20_jp2_soft.png,Orig_7_soft.png,,,,,0,4,4,137,,,,,,,,,,,,,,,,,,,,,"[0.28749999999999998, 0.28749999999999998, 0.28749999999999998, 0.28749999999999998, 0.28749999999999998, 0.28749999999999998, 0.28749999999999998, 0.28749999999999998, 0.28749999999999998, -0.0055555555555555558, -0.0055555555555555558]","[-0.73999999999999999, -0.73999999999999999, -0.73999999999999999, -0.73999999999999999, -0.73999999999999999, -0.73999999999999999, -0.73999999999999999, -0.73999999999999999, -0.73999999999999999, -0.94222222222222218, -0.94222222222222218]","[1, 1, 1, 1, 1, 1, 1, 1, 1, 1, 1]","[0, 0, 0, 0, 0, 0, 0, 0, 0, 0, 0]","[0, 0, 0, 0, 0, 0, 0, 0, 0, 0, 0]","[1.0014855215558782, 1.0176787282980513, 1.0343842356815003, 1.0510705130000133, 1.0678673631045967, 1.084489940869389, 1.1012324059847742, 1.1178985518345144, 1.1346127728465945, 9.066545296984259, 9.082770353503292]",2017_mar_16_1427,59.9131939127,aqv,001,,
Test_6_20_jp2_bone.png,Orig_6_bone.png,,,,,0,5,5,49,,,,,,,,,,,,,,,,,,,,,"[0.27083333333333331, 0.27083333333333331, 0.27083333333333331, 0.27083333333333331, 0.27083333333333331, 0.27083333333333331, 0.27083333333333331, 0.27083333333333331, 0.093055555555555558, 0.09166666666666666]","[-0.76666666666666672, -0.76666666666666672, -0.76666666666666672, -0.76666666666666672, -0.76666666666666672, -0.76666666666666672, -0.76666666666666672, -0.76666666666666672, -0.93333333333333335, -0.93555555555555558]","[1, 1, 1, 1, 1, 1, 1, 1, 1, 1]","[0, 0, 0, 0, 0, 0, 0, 0, 0, 0]","[0, 0, 0, 0, 0, 0, 0, 0, 0, 0]","[39.30654026111006, 39.322925768385176, 39.33953752924572, 39.35629892395809, 39.37303387731663, 39.38967358187074, 39.406376985949464, 39.423009779682616, 39.9753455700411, 39.99089907706366]",2017_mar_16_1427,59.9131939127,aqv,001,,
Test_5_10_jp2_soft.png,Orig_5_soft.png,,,,,0,6,6,120,,,,,,,,,,,,,,,,,,,,,"[0.29722222222222222, 0.29722222222222222, 0.29722222222222222, 0.29722222222222222, 0.29722222222222222, -0.0069444444444444441, -0.0069444444444444441]","[-0.69555555555555559, -0.69555555555555559, -0.69555555555555559, -0.69555555555555559, -0.69555555555555559, -0.97333333333333338, -0.97333333333333338]","[1, 1, 1, 1, 1, 1, 1]","[0, 0, 0, 0, 0, 0, 0]","[0, 0, 0, 0, 0, 0, 0]","[2.0529824008990545, 2.069498912896961, 2.0861752747150604, 2.102901214006124, 2.119515378610231, 2.6543238773592748, 2.6705879949149676]",2017_mar_16_1427,59.9131939127,aqv,001,,
Test_9_50_jp2_soft.png,Orig_9_soft.png,,,,,0,7,7,155,,,,,,,,,,,,,,,,,,,,,"[0.30972222222222223, 0.30972222222222223, 0.30972222222222223, 0.30972222222222223, 0.30972222222222223, 0.30972222222222223, 0.30972222222222223, 0.30972222222222223, 0.30972222222222223, -0.3347222222222222, -0.3347222222222222, -0.3347222222222222, -0.3347222222222222, -0.3347222222222222, -0.3347222222222222, -0.33194444444444443, -0.073611111111111113, -0.073611111111111113]","[-0.67777777777777781, -0.67777777777777781, -0.67777777777777781, -0.67777777777777781, -0.67777777777777781, -0.67777777777777781, -0.67777777777777781, -0.67777777777777781, -0.67777777777777781, -0.7533333333333333, -0.7533333333333333, -0.7533333333333333, -0.7533333333333333, -0.7533333333333333, -0.7533333333333333, -0.7533333333333333, -0.91111111111111109, -0.91111111111111109]","[1, 1, 1, 1, 1, 1, 1, 1, 1, 1, 1, 1, 1, 1, 1, 1, 1, 1]","[0, 0, 0, 0, 0, 0, 0, 0, 0, 0, 0, 0, 0, 0, 0, 0, 0, 0]","[0, 0, 0, 0, 0, 0, 0, 0, 0, 0, 0, 0, 0, 0, 0, 0, 0, 0]","[9.333733058039797, 9.350090922089294, 9.366759772179648, 9.383468284242554, 9.400143143720925, 9.416791261377512, 9.433550552814268, 9.450308942818083, 9.467021360993385, 11.304037349589635, 11.320477842789842, 11.337271087249974, 11.353902078175452, 11.370541782700457, 11.387263515440281, 11.403962712938664, 11.905279671074823, 11.921529967046808]",2017_mar_16_1427,59.9131939127,aqv,001,,
Test_6_70_jpg_soft.png,Orig_6_soft.png,,,,,0,8,8,135,,,,,,,,,,,,,,,,,,,,,"[-0.24027777777777778, -0.24027777777777778, -0.24027777777777778, -0.24027777777777778, -0.24027777777777778, -0.24027777777777778, -0.10277777777777777, -0.10277777777777777]","[-0.76666666666666672, -0.76666666666666672, -0.76666666666666672, -0.76666666666666672, -0.76666666666666672, -0.76666666666666672, -0.93777777777777782, -0.93777777777777782]","[1, 1, 1, 1, 1, 1, 1, 1]","[0, 0, 0, 0, 0, 0, 0, 0]","[0, 0, 0, 0, 0, 0, 0, 0]","[1.5523730486165732, 1.5687017671298236, 1.5853582979761995, 1.6021214954962488, 1.6187990591861308, 1.6355337121058255, 2.086614861706039, 2.1031497023650445]",2017_mar_16_1427,59.9131939127,aqv,001,,
Test_9_10_jp2_bone.png,Orig_9_bone.png,,,,,0,9,9,72,,,,,,,,,,,,,,,,,,,,,"[0.30416666666666664, 0.30416666666666664, 0.30416666666666664, 0.30416666666666664, 0.30416666666666664, 0.30416666666666664, 0.058333333333333334, 0.058333333333333334, 0.058333333333333334, 0.058333333333333334, 0.058333333333333334, 0.058333333333333334, 0.09583333333333334, 0.09583333333333334]","[-0.70666666666666667, -0.70666666666666667, -0.70666666666666667, -0.70666666666666667, -0.70666666666666667, -0.70666666666666667, -0.99111111111111116, -0.99111111111111116, -0.99111111111111116, -0.99111111111111116, -0.99111111111111116, -0.99111111111111116, -0.88666666666666671, -0.88666666666666671]","[1, 1, 1, 1, 1, 1, 1, 1, 1, 1, 1, 1, 1, 1]","[0, 0, 0, 0, 0, 0, 0, 0, 0, 0, 0, 0, 0, 0]","[0, 0, 0, 0, 0, 0, 0, 0, 0, 0, 0, 0, 0, 0]","[9.18327021470759, 9.199636792385718, 9.216376252821647, 9.233059224963654, 9.249673089099815, 9.266448305425001, 9.751059155270923, 9.767386972380336, 9.784042902261717, 9.800781761732651, 9.817432884126902, 9.834160926693585, 10.36893006390892, 10.385223927965853]",2017_mar_16_1427,59.9131939127,aqv,001,,
Test_1_50_jp2_bone.png,Orig_1_bone.png,,,,,0,10,10,11,,,,,,,,,,,,,,,,,,,,,"[-0.28333333333333333, -0.28333333333333333, -0.28333333333333333, -0.28333333333333333, -0.28333333333333333, -0.28333333333333333, -0.28333333333333333, -0.0027777777777777779, -0.0027777777777777779]","[-0.75111111111111106, -0.75111111111111106, -0.75111111111111106, -0.75111111111111106, -0.75111111111111106, -0.75111111111111106, -0.75111111111111106, -0.94666666666666666, -0.94666666666666666]","[1, 1, 1, 1, 1, 1, 1, 1, 1]","[0, 0, 0, 0, 0, 0, 0, 0, 0]","[0, 0, 0, 0, 0, 0, 0, 0, 0]","[1.7192535494395997, 1.735638455778826, 1.752342460793443, 1.7690025972551666, 1.7856585271656513, 1.8023706448439043, 1.8191308376844972, 3.004939419333823, 3.0213402505614795]",2017_mar_16_1427,59.9131939127,aqv,001,,
Test_0_20_jp2_bone.png,Orig_0_bone.png,,,,,0,11,11,1,,,,,,,,,,,,,,,,,,,,,"[-0.28194444444444444, -0.28194444444444444, -0.28194444444444444, -0.28194444444444444, -0.28194444444444444, -0.28194444444444444, 0.3347222222222222, 0.3347222222222222, 0.3347222222222222, 0.3347222222222222, 0.3347222222222222, 0.3347222222222222, 0.3347222222222222, 0.3347222222222222, 0.051388888888888887, 0.051388888888888887]","[-0.78666666666666663, -0.78666666666666663, -0.78666666666666663, -0.78666666666666663, -0.78666666666666663, -0.78666666666666663, -0.69777777777777783, -0.69777777777777783, -0.69777777777777783, -0.69777777777777783, -0.69777777777777783, -0.69777777777777783, -0.69777777777777783, -0.69777777777777783, -0.90888888888888886, -0.90888888888888886]","[1, 1, 1, 1, 1, 1, 1, 1, 1, 1, 1, 1, 1, 1, 1, 1]","[0, 0, 0, 0, 0, 0, 0, 0, 0, 0, 0, 0, 0, 0, 0, 0]","[0, 0, 0, 0, 0, 0, 0, 0, 0, 0, 0, 0, 0, 0, 0, 0]","[1.0012781975674443, 1.0176745217468124, 1.0344392216356937, 1.0511306069092825, 1.0678216917440295, 1.0845398188394029, 9.517370446556015, 9.53369646082865, 9.550446137232939, 9.567137823003577, 9.583830710645998, 9.600518189836293, 9.617213481251383, 9.63389645339339, 13.608480934024556, 13.624680150154745]",2017_mar_16_1427,59.9131939127,aqv,001,,
Orig_2_soft.png,Orig_2_soft.png,,,,,0,12,12,172,,,,,,,,,,,,,,,,,,,,,"[-0.27361111111111114, -0.27361111111111114, -0.27361111111111114, -0.27361111111111114, -0.27361111111111114, -0.27361111111111114, -0.27361111111111114, -0.065277777777777782, -0.065277777777777782]","[-0.76666666666666672, -0.76666666666666672, -0.76666666666666672, -0.76666666666666672, -0.76666666666666672, -0.76666666666666672, -0.76666666666666672, -0.93333333333333335, -0.93333333333333335]","[1, 1, 1, 1, 1, 1, 1, 1, 1]","[0, 0, 0, 0, 0, 0, 0, 0, 0]","[0, 0, 0, 0, 0, 0, 0, 0, 0]","[1.7523637941339985, 1.7691690573992673, 1.7858346023131162, 1.802441555657424, 1.8192095606937073, 1.8358162135700695, 1.8525538711983245, 9.918554717296502, 9.93445586762391]",2017_mar_16_1427,59.9131939127,aqv,001,,
Test_5_20_jp2_bone.png,Orig_5_bone.png,,,,,0,13,13,41,,,,,,,,,,,,,,,,,,,,,"[-0.22361111111111112, -0.22361111111111112, -0.22222222222222221, -0.22222222222222221, -0.22222222222222221, -0.22222222222222221, -0.22222222222222221, -0.043055555555555555, -0.043055555555555555]","[-0.75555555555555554, -0.75555555555555554, -0.75777777777777777, -0.75777777777777777, -0.75777777777777777, -0.75777777777777777, -0.75777777777777777, -0.95111111111111113, -0.95111111111111113]","[1, 1, 1, 1, 1, 1, 1, 1, 1]","[0, 0, 0, 0, 0, 0, 0, 0, 0]","[0, 0, 0, 0, 0, 0, 0, 0, 0]","[1.7858640483464114, 1.802494438335998, 1.8192411100317258, 1.8358754061046056, 1.852559880586341, 1.8692978386825416, 1.886056228686357, 2.4707057189079933, 2.487099939811742]",2017_mar_16_1427,59.9131939127,aqv,001,,
Test_9_50_jp2_bone.png,Orig_9_bone.png,,,,,0,14,14,75,,,,,,,,,,,,,,,,,,,,,"[-0.31388888888888888, -0.31388888888888888, -0.31388888888888888, -0.31388888888888888, -0.31388888888888888, -0.12916666666666668, -0.12916666666666668]","[-0.72666666666666668, -0.72666666666666668, -0.72666666666666668, -0.72666666666666668, -0.72666666666666668, -0.90222222222222226, -0.9044444444444445]","[1, 1, 1, 1, 1, 1, 1]","[0, 0, 0, 0, 0, 0, 0]","[0, 0, 0, 0, 0, 0, 0]","[5.894100700592389, 5.910225400264608, 5.926882832514821, 5.943580828141421, 5.960329903580714, 6.445279382634908, 6.461333772429498]",2017_mar_16_1427,59.9131939127,aqv,001,,
Test_9_70_jpg_bone.png,Orig_9_bone.png,,,,,0,15,15,79,,,,,,,,,,,,,,,,,,,,,"[-0.32777777777777778, -0.32777777777777778, -0.3263888888888889, -0.3263888888888889, -0.3263888888888889, -0.3263888888888889, -0.29444444444444445, -0.29444444444444445, -0.29444444444444445, -0.29444444444444445, -0.29444444444444445, -0.29444444444444445, -0.069444444444444448, -0.069444444444444448]","[-0.78666666666666663, -0.78666666666666663, -0.78666666666666663, -0.78666666666666663, -0.78666666666666663, -0.78666666666666663, -0.7155555555555555, -0.7155555555555555, -0.7155555555555555, -0.7155555555555555, -0.7155555555555555, -0.7155555555555555, -0.91555555555555557, -0.91555555555555557]","[1, 1, 1, 1, 1, 1, 1, 1, 1, 1, 1, 1, 1, 1]","[0, 0, 0, 0, 0, 0, 0, 0, 0, 0, 0, 0, 0, 0]","[0, 0, 0, 0, 0, 0, 0, 0, 0, 0, 0, 0, 0, 0]","[3.7062918929732405, 3.7226906208961736, 3.7393690860189963, 3.7560265182401054, 3.7727816030965187, 3.7894615705590695, 4.407654883048963, 4.4241028880060185, 4.440820414136397, 4.457434879237553, 4.474163823237177, 4.490836579410825, 5.042233101907186, 5.058646552846767]",2017_mar_16_1427,59.9131939127,aqv,001,,
Test_9_20_jpg_soft.png,Orig_9_soft.png,,,,,0,16,16,156,,,,,,,,,,,,,,,,,,,,,"[0.26666666666666666, 0.26666666666666666, 0.26666666666666666, 0.26666666666666666, 0.26666666666666666, 0.26666666666666666, 0.26666666666666666, 0.26666666666666666, 0.26666666666666666, 0.070833333333333331, 0.070833333333333331]","[-0.73111111111111116, -0.73111111111111116, -0.73111111111111116, -0.73111111111111116, -0.73111111111111116, -0.73111111111111116, -0.73111111111111116, -0.73111111111111116, -0.73111111111111116, -0.97999999999999998, -0.97999999999999998]","[1, 1, 1, 1, 1, 1, 1, 1, 1, 1, 1]","[0, 0, 0, 0, 0, 0, 0, 0, 0, 0, 0]","[0, 0, 0, 0, 0, 0, 0, 0, 0, 0, 0]","[3.3890918727847748, 3.4053944504412357, 3.4221035634400323, 3.4387793243222404, 3.45548453120864, 3.472226996353129, 3.4889087666233536, 3.5056320017029066, 3.522364551317878, 5.008817580121104, 5.025108439469477]",2017_mar_16_1427,59.9131939127,aqv,001,,
Test_5_30_jpg_bone.png,Orig_5_bone.png,,,,,0,17,17,45,,,,,,,,,,,,,,,,,,,,,"[0.26944444444444443, 0.26944444444444443, 0.26944444444444443, 0.26944444444444443, 0.26944444444444443, 0.26944444444444443, 0.26944444444444443, 0.26944444444444443, 0.26944444444444443, 0.26944444444444443, 0.26944444444444443, 0.26944444444444443, 0.26944444444444443, 0.26944444444444443, -0.079166666666666663, -0.079166666666666663]","[-0.74222222222222223, -0.74222222222222223, -0.74222222222222223, -0.74222222222222223, -0.74222222222222223, -0.74222222222222223, -0.74222222222222223, -0.74222222222222223, -0.74222222222222223, -0.74222222222222223, -0.74222222222222223, -0.74222222222222223, -0.74222222222222223, -0.74222222222222223, -0.92888888888888888, -0.92888888888888888]","[1, 1, 1, 1, 1, 1, 1, 1, 1, 1, 1, 1, 1, 1, 1, 1]","[0, 0, 0, 0, 0, 0, 0, 0, 0, 0, 0, 0, 0, 0, 0, 0]","[0, 0, 0, 0, 0, 0, 0, 0, 0, 0, 0, 0, 0, 0, 0, 0]","[3.6398661828716286, 3.656005305092549, 3.6726960894593503, 3.6894015968427993, 3.706122728617629, 3.7227765552233905, 3.7395271330315154, 3.7562533727905247, 3.7728474059258588, 3.7896136081544682, 3.80629928453709, 3.822988867003005, 3.839679050433915, 3.856407093029702, 4.958806522859959, 4.975073645095108]",2017_mar_16_1427,59.9131939127,aqv,001,,
Test_2_30_jpg_soft.png,Orig_2_soft.png,,,,,0,18,18,101,,,,,,,,,,,,,,,,,,,,,"[-0.35416666666666669, -0.35138888888888886, -0.35138888888888886, -0.35138888888888886, -0.34999999999999998, -0.34999999999999998, -0.28611111111111109, -0.28611111111111109, -0.28611111111111109, -0.28611111111111109, -0.28611111111111109, -0.28611111111111109, -0.065277777777777782, -0.065277777777777782]","[-0.72666666666666668, -0.72444444444444445, -0.72444444444444445, -0.72444444444444445, -0.72444444444444445, -0.72444444444444445, -0.73999999999999999, -0.73999999999999999, -0.73999999999999999, -0.73999999999999999, -0.73999999999999999, -0.73999999999999999, -0.95777777777777773, -0.95777777777777773]","[1, 1, 1, 1, 1, 1, 1, 1, 1, 1, 1, 1, 1, 1]","[0, 0, 0, 0, 0, 0, 0, 0, 0, 0, 0, 0, 0, 0]","[0, 0, 0, 0, 0, 0, 0, 0, 0, 0, 0, 0, 0, 0]","[7.6302144992223475, 7.64688695492805, 7.66349721341976, 7.680236072919797, 7.697103232931113, 7.713660308305407, 7.981104369886452, 7.997509708162397, 8.014261487842305, 8.030894882511348, 8.047584765474312, 8.064348563930253, 8.732537910225801, 8.748879849415971]",2017_mar_16_1427,59.9131939127,aqv,001,,
Test_0_50_jp2_bone.png,Orig_0_bone.png,,,,,0,19,19,3,,,,,,,,,,,,,,,,,,,,,"[-0.28888888888888886, -0.28888888888888886, -0.28888888888888886, -0.28888888888888886, -0.28888888888888886, -0.28888888888888886, -0.28888888888888886, -0.28888888888888886, -0.28888888888888886, -0.28888888888888886, -0.28888888888888886, -0.28888888888888886, -0.015277777777777777, -0.013888888888888888]","[-0.73777777777777775, -0.73777777777777775, -0.73777777777777775, -0.73777777777777775, -0.73777777777777775, -0.73777777777777775, -0.73777777777777775, -0.73777777777777775, -0.73777777777777775, -0.73777777777777775, -0.73777777777777775, -0.73777777777777775, -0.94444444444444442, -0.94444444444444442]","[1, 1, 1, 1, 1, 1, 1, 1, 1, 1, 1, 1, 1, 1]","[0, 0, 0, 0, 0, 0, 0, 0, 0, 0, 0, 0, 0, 0]","[0, 0, 0, 0, 0, 0, 0, 0, 0, 0, 0, 0, 0, 0]","[1.8362242512521334, 1.8526025472674519, 1.8693504208349623, 1.8860712521418463, 1.9027193698275369, 1.9194068490178324, 1.936057370447088, 1.9527721923950594, 1.969494225573726, 1.9861762963118963, 2.0028550619026646, 2.0195581655134447, 2.5048480765835848, 2.5205178653122857]",2017_mar_16_1427,59.9131939127,aqv,001,,
Test_9_50_jpg_soft.png,Orig_9_soft.png,,,,,0,20,20,158,,,,,,,,,,,,,,,,,,,,,"[-0.23055555555555557, -0.23055555555555557, -0.23055555555555557, -0.23055555555555557, -0.23055555555555557, -0.23055555555555557, -0.23055555555555557, -0.23055555555555557, -0.23055555555555557, -0.23055555555555557, -0.018055555555555554, -0.018055555555555554]","[-0.74444444444444446, -0.74444444444444446, -0.74444444444444446, -0.74444444444444446, -0.74444444444444446, -0.74444444444444446, -0.74444444444444446, -0.74444444444444446, -0.74444444444444446, -0.74444444444444446, -0.97777777777777775, -0.97777777777777775]","[1, 1, 1, 1, 1, 1, 1, 1, 1, 1, 1, 1]","[0, 0, 0, 0, 0, 0, 0, 0, 0, 0, 0, 0]","[0, 0, 0, 0, 0, 0, 0, 0, 0, 0, 0, 0]","[2.237087920977501, 2.2533877944224514, 2.270041320560267, 2.2867988091602456, 2.3034346076019574, 2.3201383121486288, 2.336849528423045, 2.353548425453482, 2.370255735644605, 2.387088942574337, 3.272276513715042, 3.288597420032602]",2017_mar_16_1427,59.9131939127,aqv,001,,
Test_6_50_jpg_soft.png,Orig_6_soft.png,,,,,0,21,21,134,,,,,,,,,,,,,,,,,,,,,"[-0.22500000000000001, -0.22500000000000001, -0.22500000000000001, -0.22500000000000001, -0.22500000000000001, -0.22500000000000001, -0.22500000000000001, -0.22500000000000001, -0.22500000000000001, -0.22500000000000001, -0.24305555555555555, -0.24305555555555555, -0.24305555555555555, -0.24305555555555555, -0.24305555555555555, -0.24305555555555555, -0.24305555555555555, -0.24305555555555555, -0.24305555555555555, -0.10277777777777777, -0.098611111111111108]","[-0.80888888888888888, -0.80888888888888888, -0.80888888888888888, -0.80888888888888888, -0.80888888888888888, -0.80888888888888888, -0.80888888888888888, -0.80888888888888888, -0.80888888888888888, -0.80888888888888888, -0.74444444444444446, -0.74444444444444446, -0.74444444444444446, -0.74444444444444446, -0.74444444444444446, -0.74444444444444446, -0.74444444444444446, -0.74444444444444446, -0.74444444444444446, -0.90222222222222226, -0.90888888888888886]","[1, 1, 1, 1, 1, 1, 1, 1, 1, 1, 1, 1, 1, 1, 1, 1, 1, 1, 1, 1, 1]","[0, 0, 0, 0, 0, 0, 0, 0, 0, 0, 0, 0, 0, 0, 0, 0, 0, 0, 0, 0, 0]","[0, 0, 0, 0, 0, 0, 0, 0, 0, 0, 0, 0, 0, 0, 0, 0, 0, 0, 0, 0, 0]","[1.2017869526462164, 1.2180958401877433, 1.2347923334746156, 1.2514467609871645, 1.2681588786945213, 1.284880010469351, 1.3015209168952424, 1.3181774477125145, 1.334948457457358, 1.3516617770364974, 1.7192601597926114, 1.7357406154333148, 1.7523478692455683, 1.7690906348580029, 1.7857916351640597, 1.802419020445086, 1.819204152241582, 1.8358811149955727, 1.8526872796937823, 2.186959981074324, 2.2033542019489687]",2017_mar_16_1427,59.9131939127,aqv,001,,
Test_2_50_jp2_bone.png,Orig_2_bone.png,,,,,0,22,22,19,,,,,,,,,,,,,,,,,,,,,"[-0.23194444444444445, -0.23194444444444445, -0.23194444444444445, -0.23194444444444445, -0.23194444444444445, -0.23194444444444445, -0.23194444444444445, -0.23194444444444445, -0.052777777777777778, -0.051388888888888887]","[-0.73777777777777775, -0.73777777777777775, -0.73777777777777775, -0.73777777777777775, -0.73777777777777775, -0.73777777777777775, -0.73777777777777775, -0.73777777777777775, -0.92000000000000004, -0.9244444444444444]","[1, 1, 1, 1, 1, 1, 1, 1, 1, 1]","[0, 0, 0, 0, 0, 0, 0, 0, 0, 0]","[0, 0, 0, 0, 0, 0, 0, 0, 0, 0]","[1.1344958902045619, 1.1509456979401875, 1.167609139578417, 1.1843326751259156, 1.2010039289598353, 1.2176968166022561, 1.2343587558716536, 1.251102422887925, 1.569564715755405, 1.5850908800493926]",2017_mar_16_1427,59.9131939127,aqv,001,,
Test_4_30_jp2_bone.png,Orig_4_bone.png,,,,,0,23,23,34,,,,,,,,,,,,,,,,,,,,,"[-0.22083333333333333, -0.22083333333333333, -0.22083333333333333, -0.22083333333333333, -0.22083333333333333, -0.22083333333333333, -0.22083333333333333, -0.22083333333333333, -0.22083333333333333, -0.22083333333333333, -0.22083333333333333, -0.29305555555555557, -0.29305555555555557, -0.29305555555555557, -0.29305555555555557, -0.29305555555555557, -0.29305555555555557, -0.29305555555555557, -0.29305555555555557, -0.29305555555555557, -0.037499999999999999, -0.037499999999999999]","[-0.77555555555555555, -0.77555555555555555, -0.77555555555555555, -0.77555555555555555, -0.77555555555555555, -0.77555555555555555, -0.77555555555555555, -0.77555555555555555, -0.77555555555555555, -0.77555555555555555, -0.77555555555555555, -0.69777777777777783, -0.69777777777777783, -0.69777777777777783, -0.69777777777777783, -0.69777777777777783, -0.69777777777777783, -0.69777777777777783, -0.69777777777777783, -0.69777777777777783, -0.93333333333333335, -0.93333333333333335]","[1, 1, 1, 1, 1, 1, 1, 1, 1, 1, 1, 1, 1, 1, 1, 1, 1, 1, 1, 1, 1, 1]","[0, 0, 0, 0, 0, 0, 0, 0, 0, 0, 0, 0, 0, 0, 0, 0, 0, 0, 0, 0, 0, 0]","[0, 0, 0, 0, 0, 0, 0, 0, 0, 0, 0, 0, 0, 0, 0, 0, 0, 0, 0, 0, 0, 0]","[0.9511244172463194, 0.9674348071275745, 0.9840534787799697, 1.000808563636383, 1.0174350475135725, 1.0342243858904112, 1.0508872265636455, 1.0676197762077209, 1.084263386845123, 1.1009604810387827, 1.117685819423059, 1.6188540451112203, 1.6353723599459045, 1.652118430705741, 1.6687947925238404, 1.6854074547882192, 1.7021306898677722, 1.7188361972221173, 1.7354993383924011, 1.7521814091305714, 2.1868091453507077, 2.2030642488098238]",2017_mar_16_1427,59.9131939127,aqv,001,,
Test_2_50_jp2_soft.png,Orig_2_soft.png,,,,,0,24,24,99,,,,,,,,,,,,,,,,,,,,,"[-0.35416666666666669, -0.35416666666666669, -0.35416666666666669, -0.35416666666666669, -0.35416666666666669, -0.35138888888888886, -0.35138888888888886, -0.35138888888888886, -0.35138888888888886, -0.34999999999999998, -0.34999999999999998, -0.24305555555555555, -0.24305555555555555, -0.24305555555555555, -0.24305555555555555, -0.24305555555555555, -0.24305555555555555, -0.24305555555555555, -0.24305555555555555, -0.24305555555555555, 0.10416666666666667, 0.10416666666666667]","[-0.83333333333333337, -0.83333333333333337, -0.8288888888888889, -0.8288888888888889, -0.8288888888888889, -0.8288888888888889, -0.8288888888888889, -0.8288888888888889, -0.8288888888888889, -0.8288888888888889, -0.8288888888888889, -0.73111111111111116, -0.73111111111111116, -0.73111111111111116, -0.73111111111111116, -0.73111111111111116, -0.73111111111111116, -0.73111111111111116, -0.73111111111111116, -0.73111111111111116, -0.88, -0.88]","[1, 1, 1, 1, 1, 1, 1, 1, 1, 1, 1, 1, 1, 1, 1, 1, 1, 1, 1, 1, 1, 1]","[0, 0, 0, 0, 0, 0, 0, 0, 0, 0, 0, 0, 0, 0, 0, 0, 0, 0, 0, 0, 0, 0]","[0, 0, 0, 0, 0, 0, 0, 0, 0, 0, 0, 0, 0, 0, 0, 0, 0, 0, 0, 0, 0, 0]","[5.99387102163746, 6.010263740172377, 6.027016721724067, 6.043669346458046, 6.0604145158140454, 6.077197544305818, 6.093730281689204, 6.1104799580643885, 6.127129878557753, 6.143993733392563, 6.160483503626892, 6.394279479980469, 6.411007522547152, 6.427710626157932, 6.44437557013589, 6.461170617432799, 6.4777955989702605, 6.494499904452823, 6.511171158286743, 6.527876665641088, 7.046137103054207, 7.062264807434985]",2017_mar_16_1427,59.9131939127,aqv,001,,
Test_1_20_jpg_bone.png,Orig_1_bone.png,,,,,0,25,25,12,,,,,,,,,,,,,,,,,,,,,"[-0.25694444444444442, -0.25694444444444442, -0.25694444444444442, -0.25694444444444442, -0.25694444444444442, -0.25694444444444442, -0.25694444444444442, -0.25694444444444442, -0.25694444444444442, -0.029166666666666667, -0.029166666666666667]","[-0.74222222222222223, -0.74222222222222223, -0.74222222222222223, -0.74222222222222223, -0.74222222222222223, -0.74222222222222223, -0.74222222222222223, -0.74222222222222223, -0.74222222222222223, -0.94666666666666666, -0.94666666666666666]","[1, 1, 1, 1, 1, 1, 1, 1, 1, 1, 1]","[0, 0, 0, 0, 0, 0, 0, 0, 0, 0, 0]","[0, 0, 0, 0, 0, 0, 0, 0, 0, 0, 0]","[1.4021815292944666, 1.4183488956477959, 1.4349759804608766, 1.4517103329126257, 1.468415840266971, 1.4850931034889072, 1.5017766765959095, 1.5185074234032072, 1.5351735692529473, 3.0383384152664803, 3.054734138509957]",2017_mar_16_1427,59.9131939127,aqv,001,,
Test_3_20_jpg_bone.png,Orig_3_bone.png,,,,,0,26,26,28,,,,,,,,,,,,,,,,,,,,,"[0.28333333333333333, 0.28333333333333333, 0.28333333333333333, 0.28333333333333333, 0.28333333333333333, 0.28333333333333333, 0.28333333333333333, 0.28333333333333333, 0.28333333333333333, 0.28333333333333333, 0.30138888888888887, 0.30138888888888887, 0.30138888888888887, 0.30138888888888887, 0.30138888888888887, 0.30138888888888887, 0.30138888888888887, 0.30138888888888887, 0.30138888888888887, -0.076388888888888895, -0.076388888888888895]","[-0.7911111111111111, -0.7911111111111111, -0.7911111111111111, -0.7911111111111111, -0.7911111111111111, -0.7911111111111111, -0.7911111111111111, -0.7911111111111111, -0.7911111111111111, -0.7911111111111111, -0.73555555555555552, -0.73555555555555552, -0.73555555555555552, -0.73555555555555552, -0.73555555555555552, -0.73555555555555552, -0.73555555555555552, -0.73555555555555552, -0.73555555555555552, -0.93777777777777782, -0.93777777777777782]","[1, 1, 1, 1, 1, 1, 1, 1, 1, 1, 1, 1, 1, 1, 1, 1, 1, 1, 1, 1, 1]","[0, 0, 0, 0, 0, 0, 0, 0, 0, 0, 0, 0, 0, 0, 0, 0, 0, 0, 0, 0, 0]","[0, 0, 0, 0, 0, 0, 0, 0, 0, 0, 0, 0, 0, 0, 0, 0, 0, 0, 0, 0, 0]","[9.466850994736888, 9.48357362888055, 9.50026050710585, 9.516927253920585, 9.533670319971861, 9.550327752222074, 9.56704918446485, 9.583739067427814, 9.600415429245913, 9.617110119696008, 10.168542398052523, 10.184829651785549, 10.201532154460438, 10.218313380144536, 10.234922737261513, 10.251616526307771, 10.268370108795352, 10.285056987049757, 10.301729743252508, 21.189157615532167, 21.205588794167852]",2017_mar_16_1427,59.9131939127,aqv,001,,
Test_7_70_jpg_bone.png,Orig_7_bone.png,,,,,0,27,27,63,,,,,,,,,,,,,,,,,,,,,"[-0.29305555555555557, -0.29305555555555557, -0.29305555555555557, -0.29166666666666669, -0.29166666666666669, -0.29166666666666669, -0.29166666666666669, -0.29166666666666669, -0.29166666666666669, -0.29166666666666669, 0.0097222222222222224]","[-0.77333333333333332, -0.77111111111111108, -0.77111111111111108, -0.77111111111111108, -0.77111111111111108, -0.77111111111111108, -0.77111111111111108, -0.77111111111111108, -0.77111111111111108, -0.77111111111111108, -0.96888888888888891]","[1, 1, 1, 1, 1, 1, 1, 1, 1, 1, 1]","[0, 0, 0, 0, 0, 0, 0, 0, 0, 0, 0]","[0, 0, 0, 0, 0, 0, 0, 0, 0, 0, 0]","[12.63970903729205, 12.6561426196713, 12.672815075406106, 12.689460488851182, 12.706140155845787, 12.722856780572329, 12.739534945198102, 12.756248565245187, 12.772936645400478, 12.789669495483395, 14.092094525316497]",2017_mar_16_1427,59.9131939127,aqv,001,,
Test_4_10_jp2_soft.png,Orig_4_soft.png,,,,,0,28,28,112,,,,,,,,,,,,,,,,,,,,,"[-0.18472222222222223, -0.18472222222222223, -0.18472222222222223, -0.18472222222222223, -0.18472222222222223, -0.18472222222222223, -0.18472222222222223, -0.18472222222222223, -0.18472222222222223, -0.18472222222222223, 0.22916666666666666, 0.22916666666666666, 0.22916666666666666, 0.22916666666666666, 0.22916666666666666, 0.23055555555555557, 0.23333333333333334, 0.10833333333333334, 0.10833333333333334]","[-0.75111111111111106, -0.75111111111111106, -0.75111111111111106, -0.75111111111111106, -0.75111111111111106, -0.75111111111111106, -0.75111111111111106, -0.75111111111111106, -0.75111111111111106, -0.75111111111111106, -0.76000000000000001, -0.76000000000000001, -0.76000000000000001, -0.76000000000000001, -0.76000000000000001, -0.76000000000000001, -0.76666666666666672, -0.90222222222222226, -0.90222222222222226]","[1, 1, 1, 1, 1, 1, 1, 1, 1, 1, 1, 1, 1, 1, 1, 1, 1, 1, 1]","[0, 0, 0, 0, 0, 0, 0, 0, 0, 0, 0, 0, 0, 0, 0, 0, 0, 0, 0]","[0, 0, 0, 0, 0, 0, 0, 0, 0, 0, 0, 0, 0, 0, 0, 0, 0, 0, 0]","[1.836234166752547, 1.8525851200392935, 1.8692464583727997, 1.8860069516522344, 1.9026926280348562, 1.9193479569803458, 1.936091924464563, 1.9527523613942321, 1.9694143006636295, 1.9861489535833243, 2.9549370756722055, 2.9714001040847506, 2.9880344001576304, 3.0047278887359425, 3.021366391389165, 3.0382170255761594, 3.054990439064568, 3.355658923770534, 3.3720958113262895]",2017_mar_16_1427,59.9131939127,aqv,001,,
Test_1_30_jp2_soft.png,Orig_1_soft.png,,,,,0,29,29,90,,,,,,,,,,,,,,,,,,,,,"[0.32777777777777778, 0.32777777777777778, 0.32777777777777778, 0.32777777777777778, 0.32777777777777778, 0.32777777777777778, 0.32777777777777778, 0.32777777777777778, 0.32777777777777778, 0.32777777777777778, 0.32777777777777778, 0.077777777777777779, 0.077777777777777779]","[-0.74888888888888894, -0.74888888888888894, -0.74888888888888894, -0.74888888888888894, -0.74888888888888894, -0.74888888888888894, -0.74888888888888894, -0.74888888888888894, -0.74888888888888894, -0.74888888888888894, -0.74888888888888894, -0.94888888888888889, -0.94888888888888889]","[1, 1, 1, 1, 1, 1, 1, 1, 1, 1, 1, 1, 1]","[0, 0, 0, 0, 0, 0, 0, 0, 0, 0, 0, 0, 0]","[0, 0, 0, 0, 0, 0, 0, 0, 0, 0, 0, 0, 0]","[4.30741703134845, 4.323828679480357, 4.340542599995388, 4.357269440690288, 4.373974948073737, 4.3906434976670425, 4.407378451054683, 4.424009441980161, 4.440713146526832, 4.45745471023838, 4.474149701156421, 7.430020936735673, 7.446418763254769]",2017_mar_16_1427,59.9131939127,aqv,001,,
Test_1_10_jp2_soft.png,Orig_1_soft.png,,,,,0,30,30,88,,,,,,,,,,,,,,,,,,,,,"[0.36666666666666664, 0.36666666666666664, 0.36666666666666664, 0.36666666666666664, 0.36666666666666664, 0.36666666666666664, 0.27500000000000002, 0.27500000000000002, 0.27500000000000002, 0.27500000000000002, 0.27500000000000002, 0.097222222222222224, 0.097222222222222224]","[-0.76888888888888884, -0.76888888888888884, -0.76888888888888884, -0.76888888888888884, -0.76888888888888884, -0.76888888888888884, -0.72222222222222221, -0.72222222222222221, -0.72222222222222221, -0.72222222222222221, -0.72222222222222221, -0.93111111111111111, -0.93111111111111111]","[1, 1, 1, 1, 1, 1, 1, 1, 1, 1, 1, 1, 1]","[0, 0, 0, 0, 0, 0, 0, 0, 0, 0, 0, 0, 0]","[0, 0, 0, 0, 0, 0, 0, 0, 0, 0, 0, 0, 0]","[0.684182139870245, 0.7004745015583467, 0.7171598774730228, 0.7338560702919494, 0.7505666856304742, 0.7672436483844649, 1.2183758778264746, 1.2347887278301641, 1.2515278877981473, 1.2682306909409817, 1.2849758602969814, 1.6693551682692487, 1.6856156802095938]",2017_mar_16_1427,59.9131939127,aqv,001,,
Test_2_50_jpg_soft.png,Orig_2_soft.png,,,,,0,31,31,102,,,,,,,,,,,,,,,,,,,,,"[0.25138888888888888, 0.25138888888888888, 0.25138888888888888, 0.25138888888888888, 0.25138888888888888, 0.25138888888888888, 0.25138888888888888, 0.25138888888888888, 0.25138888888888888, 0.25277777777777777, 0.13055555555555556, 0.13055555555555556]","[-0.76222222222222225, -0.76222222222222225, -0.76222222222222225, -0.76222222222222225, -0.76222222222222225, -0.76222222222222225, -0.76222222222222225, -0.76222222222222225, -0.76222222222222225, -0.76222222222222225, -0.93111111111111111, -0.93111111111111111]","[1, 1, 1, 1, 1, 1, 1, 1, 1, 1, 1, 1]","[0, 0, 0, 0, 0, 0, 0, 0, 0, 0, 0, 0]","[0, 0, 0, 0, 0, 0, 0, 0, 0, 0, 0, 0]","[1.3191425559925847, 1.3350190678029321, 1.3516530634078663, 1.3683600731310435, 1.38509322371101, 1.401760270964587, 1.4184267172822729, 1.4352025345433503, 1.4518458447128069, 1.4686294741695747, 1.8863218437763862, 1.9027187688916456]",2017_mar_16_1427,59.9131939127,aqv,001,,
Test_7_30_jpg_bone.png,Orig_7_bone.png,,,,,0,32,32,61,,,,,,,,,,,,,,,,,,,,,"[0.2902777777777778, 0.2902777777777778, 0.2902777777777778, 0.2902777777777778, 0.2902777777777778, 0.2902777777777778, 0.2902777777777778, 0.2902777777777778, 0.12777777777777777, 0.12777777777777777]","[-0.72888888888888892, -0.72888888888888892, -0.72888888888888892, -0.72888888888888892, -0.72888888888888892, -0.72888888888888892, -0.72888888888888892, -0.72888888888888892, -0.97111111111111115, -0.97111111111111115]","[1, 1, 1, 1, 1, 1, 1, 1, 1, 1]","[0, 0, 0, 0, 0, 0, 0, 0, 0, 0]","[0, 0, 0, 0, 0, 0, 0, 0, 0, 0]","[0.7841712027729955, 0.8006321279099211, 0.8173265178920701, 0.834069884440396, 0.850714396481635, 0.8674986268742941, 0.8841852046607528, 0.9008231063489802, 1.385520491428906, 1.4017647780128755]",2017_mar_16_1427,59.9131939127,aqv,001,,
Test_3_20_jp2_bone.png,Orig_3_bone.png,,,,,0,33,33,25,,,,,,,,,,,,,,,,,,,,,"[0.30138888888888887, 0.30138888888888887, 0.30138888888888887, 0.30138888888888887, 0.30138888888888887, 0.30138888888888887, 0.30138888888888887, 0.30138888888888887, 0.30138888888888887, 0.18611111111111112, 0.18611111111111112, 0.18611111111111112, 0.18611111111111112, 0.18333333333333332, 0.18194444444444444, 0.1361111111111111, 0.1361111111111111]","[-0.76000000000000001, -0.76000000000000001, -0.76000000000000001, -0.76000000000000001, -0.76000000000000001, -0.76000000000000001, -0.76000000000000001, -0.76000000000000001, -0.76000000000000001, -0.92888888888888888, -0.92888888888888888, -0.92888888888888888, -0.92888888888888888, -0.93333333333333335, -0.93333333333333335, -0.94222222222222218, -0.94222222222222218]","[1, 1, 1, 1, 1, 1, 1, 1, 1, 1, 1, 1, 1, 1, 1, 1, 1]","[0, 0, 0, 0, 0, 0, 0, 0, 0, 0, 0, 0, 0, 0, 0, 0, 0]","[0, 0, 0, 0, 0, 0, 0, 0, 0, 0, 0, 0, 0, 0, 0, 0, 0]","[0.6506175851682201, 0.6669685384258628, 0.6836449002439622, 0.700315252674045, 0.7170204595895484, 0.7338212158065289, 0.750446497782832, 0.7672060896875337, 0.7839043857820798, 1.234719018888427, 1.2514122069987934, 1.2680567190400325, 1.2847616254584864, 1.301509198587155, 1.3187468375544995, 1.5691275325079914, 1.5853141289262567]",2017_mar_16_1427,59.9131939127,aqv,001,,
Test_8_20_jpg_bone.png,Orig_8_bone.png,,,,,0,34,34,68,,,,,,,,,,,,,,,,,,,,,"[0.2986111111111111, 0.2986111111111111, 0.2986111111111111, 0.2986111111111111, 0.2986111111111111, 0.2986111111111111, 0.2986111111111111, 0.2986111111111111, 0.30555555555555558, 0.30555555555555558, 0.30555555555555558, 0.30555555555555558, 0.30555555555555558, 0.30555555555555558, 0.30555555555555558, 0.1361111111111111]","[-0.77555555555555555, -0.77555555555555555, -0.77555555555555555, -0.77555555555555555, -0.77555555555555555, -0.77555555555555555, -0.77555555555555555, -0.77555555555555555, -0.74222222222222223, -0.74222222222222223, -0.74222222222222223, -0.74222222222222223, -0.74222222222222223, -0.74222222222222223, -0.74222222222222223, -0.93777777777777782]","[1, 1, 1, 1, 1, 1, 1, 1, 1, 1, 1, 1, 1, 1, 1, 1]","[0, 0, 0, 0, 0, 0, 0, 0, 0, 0, 0, 0, 0, 0, 0, 0]","[0, 0, 0, 0, 0, 0, 0, 0, 0, 0, 0, 0, 0, 0, 0, 0]","[0.8509764059272129, 0.8672492371115368, 0.8839376177056693, 0.9007738293439616, 0.9173711676558014, 0.9340790787828155, 0.9507115720480215, 0.9674699620518368, 1.4855053477513138, 1.5018605075892992, 1.518592756765429, 1.5353244049765635, 1.5519893489545211, 1.568730311730178, 1.5853748237714171, 1.9527111970528495]",2017_mar_16_1427,59.9131939127,aqv,001,,
Test_1_20_jp2_soft.png,Orig_1_soft.png,,,,,0,35,35,89,,,,,,,,,,,,,,,,,,,,,"[0.27916666666666667, 0.28055555555555556, 0.28055555555555556, 0.28055555555555556, 0.28055555555555556, 0.28055555555555556, 0.28194444444444444, 0.28194444444444444, 0.14861111111111111, 0.14861111111111111]","[-0.71111111111111114, -0.71111111111111114, -0.71111111111111114, -0.71111111111111114, -0.71111111111111114, -0.71111111111111114, -0.71111111111111114, -0.71111111111111114, -0.89777777777777779, -0.89777777777777779]","[1, 1, 1, 1, 1, 1, 1, 1, 1, 1]","[0, 0, 0, 0, 0, 0, 0, 0, 0, 0]","[0, 0, 0, 0, 0, 0, 0, 0, 0, 0]","[0.9179453650140204, 0.9342347220226657, 0.9509219007450156, 0.9676325160835404, 0.9844008215877693, 1.0010131833842024, 1.0182493200409226, 1.0343896441336256, 1.5022808645153418, 1.518666672258405]",2017_mar_16_1427,59.9131939127,aqv,001,,
Test_5_20_jpg_soft.png,Orig_5_soft.png,,,,,0,36,36,124,,,,,,,,,,,,,,,,,,,,,"[0.25694444444444442, 0.25694444444444442, 0.25833333333333336, 0.25972222222222224, 0.25972222222222224, 0.25972222222222224, 0.26111111111111113, 0.26111111111111113, 0.26111111111111113, 0.26111111111111113, 0.09166666666666666, 0.09166666666666666]","[-0.73333333333333328, -0.73333333333333328, -0.73333333333333328, -0.73333333333333328, -0.73333333333333328, -0.73333333333333328, -0.73333333333333328, -0.73333333333333328, -0.73333333333333328, -0.73333333333333328, -0.94222222222222218, -0.94222222222222218]","[1, 1, 1, 1, 1, 1, 1, 1, 1, 1, 1, 1]","[0, 0, 0, 0, 0, 0, 0, 0, 0, 0, 0, 0]","[0, 0, 0, 0, 0, 0, 0, 0, 0, 0, 0, 0]","[0.7508121692808345, 0.767166427714983, 0.7840317848895211, 0.8007288791122846, 0.8173066868912429, 0.8339130392996594, 0.8509538707148749, 0.8673492934904061, 0.8840106318239123, 0.9007564021158032, 1.3685932375083212, 1.3849748387001455]",2017_mar_16_1427,59.9131939127,aqv,001,,
Orig_7_bone.png,Orig_7_bone.png,,,,,0,37,37,167,,,,,,,,,,,,,,,,,,,,,"[0.24444444444444444, 0.24444444444444444, 0.24444444444444444, 0.24444444444444444, 0.24444444444444444, 0.24444444444444444, 0.24444444444444444, 0.24444444444444444, 0.24722222222222223, 0.24861111111111112, 0.25, 0.080555555555555561, 0.080555555555555561]","[-0.71111111111111114, -0.71111111111111114, -0.71111111111111114, -0.71111111111111114, -0.71111111111111114, -0.71111111111111114, -0.71111111111111114, -0.71111111111111114, -0.71111111111111114, -0.71111111111111114, -0.71111111111111114, -0.95111111111111113, -0.95333333333333337]","[1, 1, 1, 1, 1, 1, 1, 1, 1, 1, 1, 1, 1]","[0, 0, 0, 0, 0, 0, 0, 0, 0, 0, 0, 0, 0]","[0, 0, 0, 0, 0, 0, 0, 0, 0, 0, 0, 0, 0]","[0.8677393029793166, 0.8841500497073866, 0.9008210030733608, 0.9174961629905738, 0.9342839990276843, 0.9508882481604815, 0.9675682155939285, 0.9842875445610844, 1.0010651646298356, 1.0181720993423369, 1.0345269587414805, 1.552355621359311, 1.5687188938900363]",2017_mar_16_1427,59.9131939127,aqv,001,,
Test_4_30_jpg_soft.png,Orig_4_soft.png,,,,,0,38,38,117,,,,,,,,,,,,,,,,,,,,,"[0.25972222222222224, 0.25972222222222224, 0.25972222222222224, 0.25972222222222224, 0.26250000000000001, 0.26250000000000001, 0.26250000000000001, 0.26250000000000001, 0.080555555555555561, 0.080555555555555561]","[-0.7088888888888889, -0.7088888888888889, -0.7088888888888889, -0.7088888888888889, -0.7088888888888889, -0.71111111111111114, -0.71111111111111114, -0.71333333333333337, -0.89777777777777779, -0.89777777777777779]","[1, 1, 1, 1, 1, 1, 1, 1, 1, 1]","[0, 0, 0, 0, 0, 0, 0, 0, 0, 0]","[0, 0, 0, 0, 0, 0, 0, 0, 0, 0]","[2.82127769276849, 2.8377299042767845, 2.854447730904212, 2.8711844870995265, 2.8880029710417148, 2.9047628633852582, 2.9212772721075453, 2.9381393241346814, 3.289034903747961, 3.305269875738304]",2017_mar_16_1427,59.9131939127,aqv,001,,
Test_7_10_jp2_soft.png,Orig_7_soft.png,,,,,0,39,39,136,,,,,,,,,,,,,,,,,,,,,"[0.24166666666666667, 0.24166666666666667, 0.24166666666666667, 0.24166666666666667, 0.24166666666666667, 0.24166666666666667, 0.24166666666666667, 0.24166666666666667, 0.24166666666666667, 0.037499999999999999, 0.036111111111111108]","[-0.75111111111111106, -0.75111111111111106, -0.7533333333333333, -0.7533333333333333, -0.7533333333333333, -0.7533333333333333, -0.7533333333333333, -0.7533333333333333, -0.7533333333333333, -0.93333333333333335, -0.93555555555555558]","[1, 1, 1, 1, 1, 1, 1, 1, 1, 1, 1]","[0, 0, 0, 0, 0, 0, 0, 0, 0, 0, 0]","[0, 0, 0, 0, 0, 0, 0, 0, 0, 0, 0]","[1.0683186684036627, 1.0845118751458358, 1.1011488754593302, 1.1178769180551171, 1.1345580873894505, 1.1512428623391315, 1.1679724072746467, 1.184671304305084, 1.2014260886935517, 1.5866013405611739, 1.6021160870150197]",2017_mar_16_1427,59.9131939127,aqv,001,,
Test_2_50_jpg_bone.png,Orig_2_bone.png,,,,,0,40,40,22,,,,,,,,,,,,,,,,,,,,,"[0.28333333333333333, 0.28472222222222221, 0.28472222222222221, 0.28472222222222221, 0.28472222222222221, 0.28472222222222221, 0.28472222222222221, 0.28472222222222221, 0.28472222222222221, 0.28472222222222221, 0.28472222222222221, 0.28472222222222221, 0.087499999999999994, 0.08611111111111111]","[-0.75555555555555554, -0.7533333333333333, -0.7533333333333333, -0.75777777777777777, -0.76000000000000001, -0.76000000000000001, -0.76000000000000001, -0.76000000000000001, -0.76000000000000001, -0.76000000000000001, -0.76000000000000001, -0.76000000000000001, -0.95111111111111113, -0.95333333333333337]","[1, 1, 1, 1, 1, 1, 1, 1, 1, 1, 1, 1, 1, 1]","[0, 0, 0, 0, 0, 0, 0, 0, 0, 0, 0, 0, 0, 0]","[0, 0, 0, 0, 0, 0, 0, 0, 0, 0, 0, 0, 0, 0]","[0.6006837485474534, 0.6169875281048007, 0.633664791326737, 0.6505998574430123, 0.6671046511619352, 0.6836665340524632, 0.7003705390670802, 0.7171571732324082, 0.733850962278666, 0.7504804508353118, 0.7671901647991035, 0.7839569679345004, 1.1016458521480672, 1.1179553405963816]",2017_mar_16_1427,59.9131939127,aqv,001,,
Test_7_30_jpg_soft.png,Orig_7_soft.png,,,,,0,41,41,141,,,,,,,,,,,,,,,,,,,,,"[-0.29444444444444445, -0.29444444444444445, -0.29444444444444445, -0.29444444444444445, -0.29444444444444445, -0.29444444444444445, -0.29444444444444445, -0.29444444444444445, -0.29444444444444445, -0.051388888888888887, -0.051388888888888887]","[-0.71111111111111114, -0.71111111111111114, -0.71111111111111114, -0.71111111111111114, -0.71111111111111114, -0.71111111111111114, -0.71111111111111114, -0.71111111111111114, -0.71111111111111114, -0.95777777777777773, -0.95777777777777773]","[1, 1, 1, 1, 1, 1, 1, 1, 1, 1, 1]","[0, 0, 0, 0, 0, 0, 0, 0, 0, 0, 0]","[0, 0, 0, 0, 0, 0, 0, 0, 0, 0, 0]","[0.8509313354734331, 0.8670446173346136, 0.8837405096564908, 0.9004243832314387, 0.9170836182602216, 0.9337774073355831, 0.9504913278506137, 0.9672407037578523, 0.9839957886142656, 1.7861107338394504, 1.8021305696456693]",2017_mar_16_1427,59.9131939127,aqv,001,,
Test_1_70_jpg_soft.png,Orig_1_soft.png,,,,,0,42,42,95,,,,,,,,,,,,,,,,,,,,,"[0.28888888888888886, 0.28888888888888886, 0.28888888888888886, 0.28888888888888886, 0.28888888888888886, 0.28888888888888886, 0.28888888888888886, 0.015277777777777777, 0.015277777777777777, 0.015277777777777777, 0.015277777777777777, 0.015277777777777777, 0.015277777777777777, 0.015277777777777777, 0.015277777777777777, 0.015277777777777777, 0.015277777777777777, 0.072222222222222215, 0.072222222222222215]","[-0.69777777777777783, -0.69777777777777783, -0.69777777777777783, -0.69777777777777783, -0.69777777777777783, -0.69777777777777783, -0.69777777777777783, -0.98888888888888893, -0.98888888888888893, -0.98888888888888893, -0.98888888888888893, -0.98888888888888893, -0.98888888888888893, -0.98888888888888893, -0.98888888888888893, -0.98888888888888893, -0.98888888888888893, -0.92666666666666664, -0.92666666666666664]","[1, 1, 1, 1, 1, 1, 1, 1, 1, 1, 1, 1, 1, 1, 1, 1, 1, 1, 1]","[0, 0, 0, 0, 0, 0, 0, 0, 0, 0, 0, 0, 0, 0, 0, 0, 0, 0, 0]","[0, 0, 0, 0, 0, 0, 0, 0, 0, 0, 0, 0, 0, 0, 0, 0, 0, 0, 0]","[3.6732450473646168, 3.6893387986929156, 3.7060358928865753, 3.722789775871206, 3.739517818466993, 3.756233241321752, 3.7728750491223764, 4.140876061108429, 4.156899803027045, 4.173688540467992, 4.190405465662479, 4.207012118538842, 4.22374076207052, 4.240420429065125, 4.257109110127203, 4.273953133961186, 4.2905850262905005, 4.691619362740312, 4.7079588981869165]",2017_mar_16_1427,59.9131939127,aqv,001,,
Test_2_10_jp2_bone.png,Orig_2_bone.png,,,,,0,43,43,16,,,,,,,,,,,,,,,,,,,,,"[0.2638888888888889, 0.2638888888888889, 0.2638888888888889, 0.2638888888888889, 0.2638888888888889, 0.2638888888888889, 0.2638888888888889, 0.2638888888888889, 0.2638888888888889, 0.08611111111111111, 0.08611111111111111]","[-0.70666666666666667, -0.70666666666666667, -0.70666666666666667, -0.70666666666666667, -0.71111111111111114, -0.7155555555555555, -0.71999999999999997, -0.72444444444444445, -0.72666666666666668, -0.89111111111111108, -0.89111111111111108]","[1, 1, 1, 1, 1, 1, 1, 1, 1, 1, 1]","[0, 0, 0, 0, 0, 0, 0, 0, 0, 0, 0]","[0, 0, 0, 0, 0, 0, 0, 0, 0, 0, 0]","[0.7671772445901297, 0.783937136962777, 0.8006522593495902, 0.8172997760702856, 0.8340560627984814, 0.8508736453368329, 0.8675911714672111, 0.8843114018382039, 0.9008612659818027, 1.2689073483925313, 1.2848691935651004]",2017_mar_16_1427,59.9131939127,aqv,001,,
Test_3_70_jpg_soft.png,Orig_3_soft.png,,,,,0,44,44,111,,,,,,,,,,,,,,,,,,,,,"[0.23055555555555557, 0.23055555555555557, 0.23055555555555557, 0.23055555555555557, 0.23055555555555557, 0.23055555555555557, 0.23055555555555557, 0.23055555555555557, 0.23055555555555557, 0.23055555555555557, 0.06805555555555555, 0.06805555555555555]","[-0.76666666666666672, -0.76666666666666672, -0.76666666666666672, -0.76666666666666672, -0.76666666666666672, -0.76666666666666672, -0.76666666666666672, -0.76666666666666672, -0.76666666666666672, -0.76666666666666672, -0.92222222222222228, -0.92222222222222228]","[1, 1, 1, 1, 1, 1, 1, 1, 1, 1, 1, 1]","[0, 0, 0, 0, 0, 0, 0, 0, 0, 0, 0, 0]","[0, 0, 0, 0, 0, 0, 0, 0, 0, 0, 0, 0]","[1.2017268587369472, 1.2180315396981314, 1.234757478989195, 1.2515017469413579, 1.268163085274864, 1.2848872217582539, 1.301562982640462, 1.3182744994119275, 1.3349457532458473, 1.3516455516801216, 1.7360221554408781, 1.752417878684355]",2017_mar_16_1427,59.9131939127,aqv,001,,
Test_4_30_jp2_soft.png,Orig_4_soft.png,,,,,0,45,45,114,,,,,,,,,,,,,,,,,,,,,"[0.23055555555555557, 0.23194444444444445, 0.23194444444444445, 0.23194444444444445, 0.23194444444444445, 0.23194444444444445, 0.23333333333333334, 0.23472222222222222, 0.23472222222222222, 0.23472222222222222, 0.10833333333333334, 0.10833333333333334]","[-0.75111111111111106, -0.75111111111111106, -0.75555555555555554, -0.75555555555555554, -0.75555555555555554, -0.75777777777777777, -0.76222222222222225, -0.76444444444444448, -0.76444444444444448, -0.76444444444444448, -0.92888888888888888, -0.92888888888888888]","[1, 1, 1, 1, 1, 1, 1, 1, 1, 1, 1, 1]","[0, 0, 0, 0, 0, 0, 0, 0, 0, 0, 0, 0]","[0, 0, 0, 0, 0, 0, 0, 0, 0, 0, 0, 0]","[2.587738918402465, 2.6040469045110513, 2.6207986841909587, 2.6374368863762356, 2.6540255110885482, 2.671050117147388, 2.6877478123060428, 2.70416426792508, 2.7209199537173845, 2.737630869523855, 3.0715811670525, 3.088241904450115]",2017_mar_16_1427,59.9131939127,aqv,001,,
Test_2_20_jp2_soft.png,Orig_2_soft.png,,,,,0,46,46,97,,,,,,,,,,,,,,,,,,,,,"[0.27777777777777779, 0.27777777777777779, 0.27777777777777779, 0.27777777777777779, 0.27777777777777779, 0.27777777777777779, 0.27777777777777779, 0.1111111111111111, 0.1111111111111111]","[-0.76444444444444448, -0.76444444444444448, -0.76444444444444448, -0.76444444444444448, -0.76444444444444448, -0.76444444444444448, -0.76444444444444448, -0.93777777777777782, -0.93777777777777782]","[1, 1, 1, 1, 1, 1, 1, 1, 1]","[0, 0, 0, 0, 0, 0, 0, 0, 0]","[0, 0, 0, 0, 0, 0, 0, 0, 0]","[0.75073554951814, 0.7670952164044138, 0.7838016251625959, 0.8004897053178865, 0.8172264615132008, 0.8339941660815384, 0.8506756358838174, 1.1849173888913356, 1.201235590968281]",2017_mar_16_1427,59.9131939127,aqv,001,,
Test_9_70_jpg_soft.png,Orig_9_soft.png,,,,,0,47,47,159,,,,,,,,,,,,,,,,,,,,,"[0.24166666666666667, 0.24166666666666667, 0.24166666666666667, 0.24166666666666667, 0.24166666666666667, 0.24166666666666667, 0.24166666666666667, 0.24166666666666667, 0.28472222222222221, 0.28472222222222221, 0.28472222222222221, 0.28472222222222221, 0.28472222222222221, 0.28472222222222221, 0.28472222222222221, 0.28472222222222221, 0.13750000000000001, 0.13472222222222222]","[-0.82222222222222219, -0.82222222222222219, -0.82222222222222219, -0.82222222222222219, -0.82222222222222219, -0.82222222222222219, -0.82222222222222219, -0.82222222222222219, -0.74444444444444446, -0.74444444444444446, -0.74444444444444446, -0.74444444444444446, -0.74444444444444446, -0.74444444444444446, -0.74444444444444446, -0.74444444444444446, -0.91111111111111109, -0.91333333333333333]","[1, 1, 1, 1, 1, 1, 1, 1, 1, 1, 1, 1, 1, 1, 1, 1, 1, 1]","[0, 0, 0, 0, 0, 0, 0, 0, 0, 0, 0, 0, 0, 0, 0, 0, 0, 0]","[0, 0, 0, 0, 0, 0, 0, 0, 0, 0, 0, 0, 0, 0, 0, 0, 0, 0]","[1.0180681368801743, 1.0345101324201096, 1.0512054238351993, 1.067895907734055, 1.0845701662474312, 1.1013123308948707, 1.118007922777906, 1.134716735308757, 1.519050371920457, 1.5353661702538375, 1.5521164475940168, 1.5687702741706744, 1.585508232266875, 1.6021746785845608, 1.6188870967598632, 1.6356322661158629, 1.9368674364231993, 1.9529182206024416]",2017_mar_16_1427,59.9131939127,aqv,001,,
Test_0_70_jpg_soft.png,Orig_0_soft.png,,,,,0,48,48,87,,,,,,,,,,,,,,,,,,,,,"[0.2902777777777778, 0.2902777777777778, 0.2902777777777778, 0.2902777777777778, 0.2902777777777778, 0.2902777777777778, 0.2902777777777778, 0.10416666666666667, 0.10416666666666667]","[-0.72888888888888892, -0.72888888888888892, -0.72888888888888892, -0.72888888888888892, -0.72888888888888892, -0.72888888888888892, -0.72888888888888892, -0.96444444444444444, -0.96444444444444444]","[1, 1, 1, 1, 1, 1, 1, 1, 1]","[0, 0, 0, 0, 0, 0, 0, 0, 0]","[0, 0, 0, 0, 0, 0, 0, 0, 0]","[0.650731763598742, 0.6670069985557348, 0.6835950223030522, 0.7003266705432907, 0.7169868069759104, 0.73367909368244, 0.7504443945072126, 1.1349384818749968, 1.151138899876969]",2017_mar_16_1427,59.9131939127,aqv,001,,
Test_0_10_jp2_bone.png,Orig_0_bone.png,,,,,0,49,49,0,,,,,,,,,,,,,,,,,,,,,"[-0.31805555555555554, -0.31805555555555554, -0.31805555555555554, -0.31805555555555554, -0.31805555555555554, -0.31805555555555554, -0.31805555555555554, -0.31805555555555554, -0.31527777777777777, -0.027777777777777776, -0.027777777777777776]","[-0.76666666666666672, -0.76666666666666672, -0.76666666666666672, -0.76666666666666672, -0.76666666666666672, -0.76666666666666672, -0.76666666666666672, -0.76666666666666672, -0.76666666666666672, -0.95999999999999996, -0.95999999999999996]","[1, 1, 1, 1, 1, 1, 1, 1, 1, 1, 1]","[0, 0, 0, 0, 0, 0, 0, 0, 0, 0, 0]","[0, 0, 0, 0, 0, 0, 0, 0, 0, 0, 0]","[1.1182699322525878, 1.1347146320331376, 1.1514462802442722, 1.1681553932430688, 1.1847923935565632, 1.201490990119055, 1.2181583378405776, 1.2348380048351828, 1.2516030051920097, 1.6860525629599579, 1.7024338636547327]",2017_mar_16_1427,59.9131939127,aqv,001,,
Test_9_30_jpg_bone.png,Orig_9_bone.png,,,,,0,50,50,77,,,,,,,,,,,,,,,,,,,,,"[0.1388888888888889, 0.1388888888888889, 0.1388888888888889, 0.1388888888888889, 0.1388888888888889, 0.1388888888888889, 0.14027777777777778, 0.14305555555555555, 0.14444444444444443, 0.25972222222222224, 0.25972222222222224, 0.26250000000000001, 0.26250000000000001, 0.26250000000000001, 0.26250000000000001, 0.26250000000000001, 0.26250000000000001, 0.26250000000000001, 0.26250000000000001, 0.063888888888888884, 0.063888888888888884]","[-0.79777777777777781, -0.79777777777777781, -0.79777777777777781, -0.79777777777777781, -0.79777777777777781, -0.79777777777777781, -0.79777777777777781, -0.79777777777777781, -0.80000000000000004, -0.71333333333333337, -0.71333333333333337, -0.71333333333333337, -0.71333333333333337, -0.71333333333333337, -0.71333333333333337, -0.71333333333333337, -0.71333333333333337, -0.7155555555555555, -0.72222222222222221, -0.94666666666666666, -0.94666666666666666]","[1, 1, 1, 1, 1, 1, 1, 1, 1, 1, 1, 1, 1, 1, 1, 1, 1, 1, 1, 1, 1]","[0, 0, 0, 0, 0, 0, 0, 0, 0, 0, 0, 0, 0, 0, 0, 0, 0, 0, 0, 0, 0]","[0, 0, 0, 0, 0, 0, 0, 0, 0, 0, 0, 0, 0, 0, 0, 0, 0, 0, 0, 0, 0]","[0.6839838299201801, 0.7004351400246378, 0.7170742436137516, 0.7337695350288413, 0.7505738968902733, 0.7671880614943802, 0.7839614749827888, 0.8012111327552702, 0.8174986869271379, 1.2851005551347043, 1.3016332924889866, 1.3183451097283978, 1.334952664008597, 1.3515457957691979, 1.36823928434751, 1.3850205100316089, 1.4017025807697792, 1.4185429989884142, 1.435236788034672, 1.7360170474275947, 1.7523701039899606]",2017_mar_16_1427,59.9131939127,aqv,001,,
Test_8_50_jp2_bone.png,Orig_8_bone.png,,,,,0,51,51,67,,,,,,,,,,,,,,,,,,,,,"[0.28472222222222221, 0.28472222222222221, 0.28472222222222221, 0.28472222222222221, 0.28472222222222221, 0.28472222222222221, 0.28472222222222221, 0.28472222222222221, 0.28472222222222221, 0.28472222222222221, 0.11666666666666667]","[-0.72666666666666668, -0.72666666666666668, -0.72666666666666668, -0.72666666666666668, -0.72666666666666668, -0.72666666666666668, -0.72666666666666668, -0.72666666666666668, -0.72666666666666668, -0.72666666666666668, -0.91333333333333333]","[1, 1, 1, 1, 1, 1, 1, 1, 1, 1, 1]","[0, 0, 0, 0, 0, 0, 0, 0, 0, 0, 0]","[0, 0, 0, 0, 0, 0, 0, 0, 0, 0, 0]","[0.5504272076359484, 0.5667475130176172, 0.5834617340005934, 0.6001356920751277, 0.6168898754986003, 0.6335518147679977, 0.6503150123171508, 0.666985965683125, 0.6836521115328651, 0.7003765484842006, 1.8024652927706484]",2017_mar_16_1427,59.9131939127,aqv,001,,
Test_0_30_jp2_bone.png,Orig_0_bone.png,,,,,0,52,52,2,,,,,,,,,,,,,,,,,,,,,"[0.27083333333333331, 0.27083333333333331, 0.27083333333333331, 0.27083333333333331, 0.27083333333333331, 0.27083333333333331, 0.27083333333333331, 0.27083333333333331, 0.27083333333333331, 0.27083333333333331, 0.27083333333333331, 0.27083333333333331, 0.27083333333333331, 0.074999999999999997, 0.074999999999999997, 0.074999999999999997, 0.074999999999999997, 0.074999999999999997, 0.074999999999999997, 0.074999999999999997, 0.074999999999999997, 0.074999999999999997, 0.074999999999999997, 0.074999999999999997, 0.19722222222222222, 0.19722222222222222, 0.19722222222222222, 0.19722222222222222, 0.19722222222222222, 0.19722222222222222, 0.19722222222222222, 0.19722222222222222, 0.28472222222222221, 0.28472222222222221, 0.28472222222222221, 0.27361111111111114, 0.10833333333333334, 0.10833333333333334]","[-0.70666666666666667, -0.70666666666666667, -0.70666666666666667, -0.70666666666666667, -0.70666666666666667, -0.70666666666666667, -0.70666666666666667, -0.70666666666666667, -0.70666666666666667, -0.70666666666666667, -0.70666666666666667, -0.70666666666666667, -0.70666666666666667, -0.8288888888888889, -0.8288888888888889, -0.8288888888888889, -0.8288888888888889, -0.8288888888888889, -0.8288888888888889, -0.8288888888888889, -0.8288888888888889, -0.8288888888888889, -0.8288888888888889, -0.8288888888888889, -0.79333333333333333, -0.79333333333333333, -0.79333333333333333, -0.79333333333333333, -0.79333333333333333, -0.79333333333333333, -0.79333333333333333, -0.79333333333333333, -0.73999999999999999, -0.73999999999999999, -0.73999999999999999, -0.7533333333333333, -0.9244444444444444, -0.9244444444444444]","[1, 1, 1, 1, 1, 1, 1, 1, 1, 1, 1, 1, 1, 1, 1, 1, 1, 1, 1, 1, 1, 1, 1, 1, 1, 1, 1, 1, 1, 1, 1, 1, 1, 1, 1, 1, 1, 1]","[0, 0, 0, 0, 0, 0, 0, 0, 0, 0, 0, 0, 0, 0, 0, 0, 0, 0, 0, 0, 0, 0, 0, 0, 0, 0, 0, 0, 0, 0, 0, 0, 0, 0, 0, 0, 0, 0]","[0, 0, 0, 0, 0, 0, 0, 0, 0, 0, 0, 0, 0, 0, 0, 0, 0, 0, 0, 0, 0, 0, 0, 0, 0, 0, 0, 0, 0, 0, 0, 0, 0, 0, 0, 0, 0, 0]","[0.5337385265738703, 0.5501537803211249, 0.5667409026937094, 0.5834632363403216, 0.6001516169344541, 0.6169139130506665, 0.6335322842642199, 0.650324627320515, 0.6670682943367865, 0.6836229659675155, 0.700320060190279, 0.717073943145806, 0.7337397885276005, 4.607734868041007, 4.624361652386142, 4.641043422656367, 4.657815934740938, 4.674455038330052, 4.6911677569733, 4.707895799569087, 4.724568555742735, 4.7412473213043995, 4.757986781740328, 4.774667951074662, 5.025833172083367, 5.041981909336755, 5.058590064552845, 5.075289562519174, 5.091993267065845, 5.108698173513403, 5.125393765367335, 5.142135028610937, 5.4930309086921625, 5.509370444138767, 5.5260870688653085, 5.542912163131405, 5.776888120744843, 5.793229158531176]",2017_mar_16_1427,59.9131939127,aqv,001,,
Test_6_30_jp2_bone.png,Orig_6_bone.png,,,,,0,53,53,50,,,,,,,,,,,,,,,,,,,,,"[0.2722222222222222, 0.2722222222222222, 0.2722222222222222, 0.2722222222222222, 0.2722222222222222, 0.2722222222222222, 0.2722222222222222, 0.26527777777777778, 0.094444444444444442]","[-0.71777777777777774, -0.71777777777777774, -0.71777777777777774, -0.71777777777777774, -0.71999999999999997, -0.72222222222222221, -0.72666666666666668, -0.73555555555555552, -0.9044444444444445]","[1, 1, 1, 1, 1, 1, 1, 1, 1]","[0, 0, 0, 0, 0, 0, 0, 0, 0]","[0, 0, 0, 0, 0, 0, 0, 0, 0]","[0.41666776838246733, 0.4331377076159697, 0.44986004126258194, 0.4665532293729484, 0.4833894410112407, 0.5000216338085011, 0.5168109721853398, 0.533538113348186, 0.8839394205133431]",2017_mar_16_1427,59.9131939127,aqv,001,,
Test_4_50_jp2_bone.png,Orig_4_bone.png,,,,,0,54,54,35,,,,,,,,,,,,,,,,,,,,,"[0.24027777777777778, 0.24027777777777778, 0.24027777777777778, 0.24027777777777778, 0.24027777777777778, 0.24027777777777778, 0.24027777777777778, 0.09583333333333334, 0.09583333333333334]","[-0.72888888888888892, -0.72888888888888892, -0.72888888888888892, -0.72888888888888892, -0.72888888888888892, -0.72888888888888892, -0.72888888888888892, -0.9555555555555556, -0.9555555555555556]","[1, 1, 1, 1, 1, 1, 1, 1, 1]","[0, 0, 0, 0, 0, 0, 0, 0, 0]","[0, 0, 0, 0, 0, 0, 0, 0, 0]","[0.45025696157244965, 0.46663465665187687, 0.4833488776348531, 0.5000636995537207, 0.5167601928405929, 0.5334723105188459, 0.5502114704868291, 0.9678506570053287, 0.9842956572538242]",2017_mar_16_1427,59.9131939127,aqv,001,,
Test_3_20_jpg_soft.png,Orig_3_soft.png,,,,,0,55,55,108,,,,,,,,,,,,,,,,,,,,,"[0.25416666666666665, 0.25416666666666665, 0.25416666666666665, 0.25416666666666665, 0.25416666666666665, 0.25416666666666665, 0.25416666666666665, 0.25416666666666665, 0.25416666666666665, 0.072222222222222215, 0.072222222222222215, 0.072222222222222215, 0.072222222222222215, 0.072222222222222215, 0.072222222222222215, 0.072222222222222215, 0.072222222222222215, 0.072222222222222215, 0.072222222222222215, 0.04583333333333333]","[-0.73555555555555552, -0.73555555555555552, -0.73555555555555552, -0.73555555555555552, -0.73555555555555552, -0.73555555555555552, -0.73555555555555552, -0.73555555555555552, -0.73555555555555552, -0.87111111111111106, -0.87111111111111106, -0.87111111111111106, -0.87111111111111106, -0.87111111111111106, -0.87111111111111106, -0.87111111111111106, -0.87111111111111106, -0.87111111111111106, -0.87111111111111106, -0.93555555555555558]","[1, 1, 1, 1, 1, 1, 1, 1, 1, 1, 1, 1, 1, 1, 1, 1, 1, 1, 1, 1]","[0, 0, 0, 0, 0, 0, 0, 0, 0, 0, 0, 0, 0, 0, 0, 0, 0, 0, 0, 0]","[0, 0, 0, 0, 0, 0, 0, 0, 0, 0, 0, 0, 0, 0, 0, 0, 0, 0, 0, 0]","[0.4170556745957583, 0.4332981583720539, 0.44994747792952694, 0.46667281628469937, 0.4833461733942386, 0.5000609953131061, 0.5166979956266005, 0.533493944327347, 0.550175414129626, 1.0849631804449018, 1.1011687064601574, 1.1178985518636182, 1.1345613925368525, 1.1512575853557792, 1.1679032992688008, 1.1847686564433388, 1.2013714032364078, 1.2180285349895712, 1.234750267729396, 1.5185570008761715]",2017_mar_16_1427,59.9131939127,aqv,001,,
Test_2_20_jp2_bone.png,Orig_2_bone.png,,,,,0,56,56,17,,,,,,,,,,,,,,,,,,,,,"[-0.29444444444444445, -0.29444444444444445, -0.29444444444444445, -0.29444444444444445, -0.29444444444444445, -0.29444444444444445, -0.29444444444444445, -0.10000000000000001, -0.10000000000000001]","[-0.71777777777777774, -0.71777777777777774, -0.71777777777777774, -0.71777777777777774, -0.71777777777777774, -0.71777777777777774, -0.71777777777777774, -0.89555555555555555, -0.89555555555555555]","[1, 1, 1, 1, 1, 1, 1, 1, 1]","[0, 0, 0, 0, 0, 0, 0, 0, 0]","[0, 0, 0, 0, 0, 0, 0, 0, 0]","[0.8844796648190822, 0.900738974858541, 0.9174312615650706, 0.9341328628361225, 0.9509228021488525, 0.9676189949677791, 0.9842746243812144, 1.4188669052091427, 1.435177896026289]",2017_mar_16_1427,59.9131939127,aqv,001,,
Orig_1_soft.png,Orig_1_soft.png,,,,,0,57,57,171,,,,,,,,,,,,,,,,,,,,,"[0.33611111111111114, 0.33611111111111114, 0.33611111111111114, 0.33611111111111114, 0.33611111111111114, 0.33611111111111114, 0.33611111111111114, 0.29583333333333334, 0.29583333333333334, 0.29583333333333334, 0.29583333333333334, 0.29583333333333334, 0.29583333333333334, 0.29583333333333334, 0.29583333333333334, 0.29583333333333334, 0.29583333333333334, 0.29583333333333334, 0.29583333333333334, 0.29583333333333334, 0.29583333333333334, 0.29583333333333334, 0.29583333333333334, 0.29583333333333334, 0.29583333333333334, 0.29583333333333334, 0.29583333333333334, 0.29583333333333334, 0.10416666666666667, 0.10416666666666667]","[-0.72444444444444445, -0.72444444444444445, -0.72444444444444445, -0.72444444444444445, -0.72444444444444445, -0.72444444444444445, -0.72444444444444445, -0.7844444444444445, -0.7844444444444445, -0.7844444444444445, -0.7844444444444445, -0.7844444444444445, -0.7844444444444445, -0.7844444444444445, -0.7844444444444445, -0.7844444444444445, -0.7844444444444445, -0.7844444444444445, -0.73555555555555552, -0.73555555555555552, -0.73555555555555552, -0.73555555555555552, -0.73555555555555552, -0.73555555555555552, -0.73555555555555552, -0.73555555555555552, -0.73555555555555552, -0.73555555555555552, -0.93777777777777782, -0.93777777777777782]","[1, 1, 1, 1, 1, 1, 1, 1, 1, 1, 1, 1, 1, 1, 1, 1, 1, 1, 1, 1, 1, 1, 1, 1, 1, 1, 1, 1, 1, 1]","[0, 0, 0, 0, 0, 0, 0, 0, 0, 0, 0, 0, 0, 0, 0, 0, 0, 0, 0, 0, 0, 0, 0, 0, 0, 0, 0, 0, 0, 0]","[0, 0, 0, 0, 0, 0, 0, 0, 0, 0, 0, 0, 0, 0, 0, 0, 0, 0, 0, 0, 0, 0, 0, 0, 0, 0, 0, 0, 0, 0]","[0.7342665117175784, 0.7506655401084572, 0.7672223150439095, 0.7839635782875121, 0.8006717898824718, 0.8173721892526373, 0.834001677838387, 1.2017539009975735, 1.218142713449197, 1.2348220799467526, 1.2515480192378163, 1.2681077988818288, 1.2849130621470977, 1.3016017432091758, 1.3182865181588568, 1.3349376405531075, 1.351671091571916, 1.3683462515182327, 1.8865033274050802, 1.9027367970556952, 1.9193762011418585, 1.936076600512024, 1.952856924792286, 1.9695098499942105, 1.986192521668272, 2.002973747381475, 2.0196161561179906, 2.0363177573890425, 2.6213425341120455, 2.6374537126685027]",2017_mar_16_1427,59.9131939127,aqv,001,,
Test_1_30_jpg_soft.png,Orig_1_soft.png,,,,,0,58,58,93,,,,,,,,,,,,,,,,,,,,,"[0.33055555555555555, 0.33055555555555555, 0.33055555555555555, 0.33055555555555555, 0.33055555555555555, 0.33055555555555555, 0.33055555555555555, 0.33055555555555555, 0.11805555555555555, 0.12361111111111112]","[-0.76888888888888884, -0.76888888888888884, -0.76888888888888884, -0.76888888888888884, -0.76888888888888884, -0.76888888888888884, -0.76888888888888884, -0.76888888888888884, -0.95111111111111113, -0.94666666666666666]","[1, 1, 1, 1, 1, 1, 1, 1, 1, 1]","[0, 0, 0, 0, 0, 0, 0, 0, 0, 0]","[0, 0, 0, 0, 0, 0, 0, 0, 0, 0]","[0.5670780295622535, 0.5833926259947475, 0.6000668845372275, 0.6167285233386792, 0.6334244156896602, 0.6500599136343226, 0.6667074303841218, 0.6834598109999206, 1.0517868324823212, 1.0677327527664602]",2017_mar_16_1427,59.9131939127,aqv,001,,
Test_0_20_jp2_soft.png,Orig_0_soft.png,,,,,0,59,59,81,,,,,,,,,,,,,,,,,,,,,"[0.16666666666666666, 0.16666666666666666, 0.16666666666666666, 0.16666666666666666, 0.16666666666666666, 0.16666666666666666, 0.16666666666666666, 0.16666666666666666, 0.16666666666666666, 0.16666666666666666, 0.0097222222222222224, 0.0097222222222222224, 0.0097222222222222224, 0.0097222222222222224, 0.0097222222222222224, 0.0097222222222222224, 0.0097222222222222224, 0.0097222222222222224, 0.0097222222222222224, 0.0097222222222222224, 0.0097222222222222224, 0.019444444444444445, 0.019444444444444445, 0.019444444444444445, 0.019444444444444445, 0.018055555555555554, 0.018055555555555554, 0.016666666666666666, 0.016666666666666666]","[-0.76444444444444448, -0.76444444444444448, -0.76444444444444448, -0.76444444444444448, -0.76444444444444448, -0.76444444444444448, -0.76444444444444448, -0.76444444444444448, -0.76444444444444448, -0.76444444444444448, -0.87777777777777777, -0.87777777777777777, -0.87777777777777777, -0.87777777777777777, -0.87777777777777777, -0.87777777777777777, -0.87777777777777777, -0.87777777777777777, -0.87777777777777777, -0.87777777777777777, -0.87777777777777777, -0.86444444444444446, -0.86444444444444446, -0.86444444444444446, -0.8666666666666667, -0.87111111111111106, -0.87333333333333329, -0.88, -0.88222222222222224]","[1, 1, 1, 1, 1, 1, 1, 1, 1, 1, 1, 1, 1, 1, 1, 1, 1, 1, 1, 1, 1, 1, 1, 1, 1, 1, 1, 1, 1]","[0, 0, 0, 0, 0, 0, 0, 0, 0, 0, 0, 0, 0, 0, 0, 0, 0, 0, 0, 0, 0, 0, 0, 0, 0, 0, 0, 0, 0]","[0, 0, 0, 0, 0, 0, 0, 0, 0, 0, 0, 0, 0, 0, 0, 0, 0, 0, 0, 0, 0, 0, 0, 0, 0, 0, 0, 0, 0]","[2.0700652980303857, 2.086299969581887, 2.1029970638046507, 2.1197100829158444, 2.1364170926390216, 2.15306370795588, 2.1697785298747476, 2.1865011640184093, 2.2031745211279485, 2.219848479202483, 2.687762234825641, 2.704095159919234, 2.7208517471153755, 2.7375365220650565, 2.7542098792036995, 2.770935217558872, 2.7875866403919645, 2.804296654794598, 2.820946575317066, 2.8377509371493943, 2.8543714116385672, 3.2554403021058533, 3.2717609079554677, 3.288479335489683, 3.3052034719730727, 3.3223245287663303, 3.339160439936677, 3.355656519997865, 3.372250553162303]",2017_mar_16_1427,59.9131939127,aqv,001,,
Test_7_70_jpg_soft.png,Orig_7_soft.png,,,,,0,60,60,143,,,,,,,,,,,,,,,,,,,,,"[0.015277777777777777, 0.015277777777777777, 0.015277777777777777, 0.015277777777777777, 0.015277777777777777, 0.015277777777777777, 0.015277777777777777, 0.015277777777777777, 0.015277777777777777, 0.015277777777777777, -0.32777777777777778, -0.32777777777777778, -0.32777777777777778, -0.32777777777777778, -0.32777777777777778, -0.32777777777777778, -0.32777777777777778, -0.32777777777777778, -0.32777777777777778, -0.32777777777777778, -0.047222222222222221, -0.047222222222222221]","[-0.9555555555555556, -0.9555555555555556, -0.9555555555555556, -0.9555555555555556, -0.9555555555555556, -0.9555555555555556, -0.95777777777777773, -0.95777777777777773, -0.95777777777777773, -0.95777777777777773, -0.76666666666666672, -0.76666666666666672, -0.76666666666666672, -0.76666666666666672, -0.76666666666666672, -0.76666666666666672, -0.76666666666666672, -0.76666666666666672, -0.76666666666666672, -0.76666666666666672, -0.92222222222222228, -0.92222222222222228]","[1, 1, 1, 1, 1, 1, 1, 1, 1, 1, 1, 1, 1, 1, 1, 1, 1, 1, 1, 1, 1, 1]","[0, 0, 0, 0, 0, 0, 0, 0, 0, 0, 0, 0, 0, 0, 0, 0, 0, 0, 0, 0, 0, 0]","[0, 0, 0, 0, 0, 0, 0, 0, 0, 0, 0, 0, 0, 0, 0, 0, 0, 0, 0, 0, 0, 0]","[0.16597879162873141, 0.18221646788879298, 0.19888291420647874, 0.2156220741744619, 0.23229483034810983, 0.24896548324613832, 0.2660694132791832, 0.2823888172279112, 0.29915562039241195, 0.3157472497841809, 0.7336153941287193, 0.7499810704030097, 0.7666604369296692, 0.7833893809001893, 0.8000269821495749, 0.816693127999315, 0.8334358936117496, 0.8501311849977355, 0.8667919223953504, 0.883560528367525, 1.401411125290906, 1.4178768579440657]",2017_mar_16_1427,59.9131939127,aqv,001,,
Test_2_30_jpg_bone.png,Orig_2_bone.png,,,,,0,61,61,21,,,,,,,,,,,,,,,,,,,,,"[0.27916666666666667, 0.28055555555555556, 0.28055555555555556, 0.28055555555555556, 0.28055555555555556, 0.28055555555555556, 0.056944444444444443, 0.056944444444444443]","[-0.74444444444444446, -0.74444444444444446, -0.74444444444444446, -0.74444444444444446, -0.74444444444444446, -0.74444444444444446, -0.94888888888888889, -0.94888888888888889]","[1, 1, 1, 1, 1, 1, 1, 1]","[0, 0, 0, 0, 0, 0, 0, 0]","[0, 0, 0, 0, 0, 0, 0, 0]","[0.516970521537587, 0.5335137753281742, 0.5501014986366499, 0.566799794731196, 0.5835200251021888, 0.6001552225789055, 0.9511812059790827, 0.967544478509808]",2017_mar_16_1427,59.9131939127,aqv,001,,
Test_6_30_jp2_soft.png,Orig_6_soft.png,,,,,0,62,62,130,,,,,,,,,,,,,,,,,,,,,"[0.21527777777777779, 0.21527777777777779, 0.21527777777777779, 0.21527777777777779, 0.21527777777777779, 0.21527777777777779, 0.21527777777777779, 0.21527777777777779, 0.058333333333333334, 0.058333333333333334]","[-0.76444444444444448, -0.76444444444444448, -0.76444444444444448, -0.76444444444444448, -0.76444444444444448, -0.76444444444444448, -0.76444444444444448, -0.76444444444444448, -0.95999999999999996, -0.95999999999999996]","[1, 1, 1, 1, 1, 1, 1, 1, 1, 1]","[0, 0, 0, 0, 0, 0, 0, 0, 0, 0]","[0, 0, 0, 0, 0, 0, 0, 0, 0, 0]","[0.4671154079551343, 0.4833584926382173, 0.5001243943988811, 0.5167818266199902, 0.5334638973872643, 0.5501985502778552, 0.5668725083523896, 0.5835650955268648, 0.9684561032045167, 0.9843329154828098]",2017_mar_16_1427,59.9131939127,aqv,001,,
Test_0_30_jpg_soft.png,Orig_0_soft.png,,,,,0,63,63,85,,,,,,,,,,,,,,,,,,,,,"[0.15416666666666667, 0.15416666666666667, 0.15416666666666667, 0.15416666666666667, 0.15416666666666667, 0.15416666666666667, 0.15416666666666667, 0.15416666666666667, 0.15416666666666667, 0.27083333333333331, 0.27083333333333331, 0.27083333333333331, 0.27083333333333331, 0.27083333333333331, 0.27083333333333331, 0.27083333333333331, 0.27083333333333331, 0.27083333333333331, 0.27083333333333331, 0.052777777777777778, 0.050000000000000003]","[-0.80222222222222217, -0.80222222222222217, -0.80222222222222217, -0.80222222222222217, -0.80222222222222217, -0.80222222222222217, -0.80222222222222217, -0.80222222222222217, -0.80222222222222217, -0.71777777777777774, -0.71777777777777774, -0.71777777777777774, -0.71777777777777774, -0.71777777777777774, -0.71777777777777774, -0.71777777777777774, -0.71777777777777774, -0.72222222222222221, -0.72666666666666668, -0.96666666666666667, -0.96666666666666667]","[1, 1, 1, 1, 1, 1, 1, 1, 1, 1, 1, 1, 1, 1, 1, 1, 1, 1, 1, 1, 1]","[0, 0, 0, 0, 0, 0, 0, 0, 0, 0, 0, 0, 0, 0, 0, 0, 0, 0, 0, 0, 0]","[0, 0, 0, 0, 0, 0, 0, 0, 0, 0, 0, 0, 0, 0, 0, 0, 0, 0, 0, 0, 0]","[0.46684558628476225, 0.48325422970810905, 0.49999969953205436, 0.5167202303709928, 0.5333145640033763, 0.5500852732511703, 0.5666802078194451, 0.5835010955051985, 0.6001963869202882, 1.0683430064527784, 1.084367950243177, 1.1010815702902619, 1.1177837724681012, 1.1344496178498957, 1.1511410031525884, 1.167815562163014, 1.184492224449059, 1.2015027084271424, 1.218013511504978, 1.7030735633743461, 1.7189149202313274]",2017_mar_16_1427,59.9131939127,aqv,001,,
Test_2_70_jpg_soft.png,Orig_2_soft.png,,,,,0,64,64,103,,,,,,,,,,,,,,,,,,,,,"[0.28194444444444444, 0.28194444444444444, 0.28194444444444444, 0.28194444444444444, 0.28194444444444444, 0.28194444444444444, 0.28194444444444444, 0.28194444444444444, 0.21805555555555556, 0.21805555555555556, 0.21805555555555556, 0.21805555555555556, 0.21805555555555556, 0.21805555555555556, 0.21805555555555556, 0.21805555555555556, 0.21805555555555556, 0.21805555555555556, 0.26250000000000001, 0.26250000000000001, 0.26250000000000001, 0.26250000000000001, 0.26250000000000001, 0.26250000000000001, 0.26250000000000001, 0.26250000000000001, 0.26250000000000001, 0.074999999999999997, 0.073611111111111113]","[-0.77777777777777779, -0.77777777777777779, -0.77777777777777779, -0.77777777777777779, -0.77777777777777779, -0.77777777777777779, -0.77777777777777779, -0.77777777777777779, -0.83777777777777773, -0.83777777777777773, -0.83777777777777773, -0.83777777777777773, -0.83777777777777773, -0.83777777777777773, -0.83777777777777773, -0.83777777777777773, -0.83777777777777773, -0.83777777777777773, -0.73111111111111116, -0.73111111111111116, -0.73111111111111116, -0.73111111111111116, -0.73111111111111116, -0.73111111111111116, -0.73111111111111116, -0.73111111111111116, -0.73111111111111116, -0.9244444444444444, -0.92666666666666664]","[1, 1, 1, 1, 1, 1, 1, 1, 1, 1, 1, 1, 1, 1, 1, 1, 1, 1, 1, 1, 1, 1, 1, 1, 1, 1, 1, 1, 1]","[0, 0, 0, 0, 0, 0, 0, 0, 0, 0, 0, 0, 0, 0, 0, 0, 0, 0, 0, 0, 0, 0, 0, 0, 0, 0, 0, 0, 0]","[0, 0, 0, 0, 0, 0, 0, 0, 0, 0, 0, 0, 0, 0, 0, 0, 0, 0, 0, 0, 0, 0, 0, 0, 0, 0, 0, 0, 0]","[0.5003070799284615, 0.5166078547772486, 0.5332998410158325, 0.5500248789030593, 0.5666814097203314, 0.5833352363260929, 0.6000966310384683, 0.6167862135043833, 0.9513629901048262, 0.967455239064293, 0.984173666627612, 1.000821483816253, 1.0175275921355933, 1.034235803730553, 1.0509593392780516, 1.0676720578921959, 1.0843009455420543, 1.1010776641778648, 1.351912669138983, 1.3682146458595525, 1.3848465381888673, 1.4016082333691884, 1.4182737782830372, 1.4349173888913356, 1.4516280042589642, 1.4683205914334394, 1.4850552443531342, 1.8193811288510915, 1.8357723450171761]",2017_mar_16_1427,59.9131939127,aqv,001,,
Test_9_20_jp2_soft.png,Orig_9_soft.png,,,,,0,65,65,153,,,,,,,,,,,,,,,,,,,,,"[0.26111111111111113, 0.26111111111111113, 0.26111111111111113, 0.26111111111111113, 0.26111111111111113, 0.26111111111111113, 0.26111111111111113, 0.26111111111111113, 0.26111111111111113, 0.26111111111111113, 0.036111111111111108]","[-0.71999999999999997, -0.71999999999999997, -0.71999999999999997, -0.71999999999999997, -0.71999999999999997, -0.71999999999999997, -0.71999999999999997, -0.71999999999999997, -0.71999999999999997, -0.71999999999999997, -0.95777777777777773]","[1, 1, 1, 1, 1, 1, 1, 1, 1, 1, 1]","[0, 0, 0, 0, 0, 0, 0, 0, 0, 0, 0]","[0, 0, 0, 0, 0, 0, 0, 0, 0, 0, 0]","[0.4668461872206535, 0.4831580794416368, 0.499899643153185, 0.5165708969871048, 0.5333458128443453, 0.5500209727906622, 0.5666919261566363, 0.5835113114735577, 0.6000497577770147, 0.6167832087958232, 1.000821483816253]",2017_mar_16_1427,59.9131939127,aqv,001,,
Test_3_20_jp2_soft.png,Orig_3_soft.png,,,,,0,66,66,105,,,,,,,,,,,,,,,,,,,,,"[0.2388888888888889, 0.2388888888888889, 0.24027777777777778, 0.24166666666666667, 0.24444444444444444, 0.24583333333333332, 0.24583333333333332, 0.24583333333333332, 0.24583333333333332, 0.24583333333333332, 0.24583333333333332, 0.30277777777777776, 0.30277777777777776, 0.30277777777777776, 0.30277777777777776, 0.30277777777777776, 0.30277777777777776, 0.30277777777777776, 0.30277777777777776, 0.30277777777777776, 0.11944444444444445, 0.11944444444444445]","[-0.80000000000000004, -0.80000000000000004, -0.80000000000000004, -0.80000000000000004, -0.80000000000000004, -0.80000000000000004, -0.80000000000000004, -0.80444444444444441, -0.80666666666666664, -0.80666666666666664, -0.80666666666666664, -0.69111111111111112, -0.69111111111111112, -0.69111111111111112, -0.69111111111111112, -0.69111111111111112, -0.69111111111111112, -0.69111111111111112, -0.69111111111111112, -0.69111111111111112, -0.94222222222222218, -0.94222222222222218]","[1, 1, 1, 1, 1, 1, 1, 1, 1, 1, 1, 1, 1, 1, 1, 1, 1, 1, 1, 1, 1, 1]","[0, 0, 0, 0, 0, 0, 0, 0, 0, 0, 0, 0, 0, 0, 0, 0, 0, 0, 0, 0, 0, 0]","[0, 0, 0, 0, 0, 0, 0, 0, 0, 0, 0, 0, 0, 0, 0, 0, 0, 0, 0, 0, 0, 0]","[0.4841117698815651, 0.5001697653206065, 0.5168359111703467, 0.5336667143565137, 0.5503514893061947, 0.5670503863657359, 0.5837114242312964, 0.6002826216863468, 0.6172946080332622, 0.6338940496207215, 0.650334242352983, 1.0515768042532727, 1.067808471096214, 1.0845130770467222, 1.1012215891096275, 1.1179379133682232, 1.1346268949273508, 1.151317078329157, 1.1680192805361003, 1.1847440179553814, 1.4856799205881543, 1.5020128456817474]",2017_mar_16_1427,59.9131939127,aqv,001,,
